acc_x,acc_y,acc_z,gyro_x,gyro_y,gyro_z,timestamp
-0.45942193919999996,-1.31605243,10.0522477426,0.012217304763960306,-0.06963863715457375,-0.14172073526193954,1756823028.167565
-0.39720855159999996,-1.387837108,10.025926693999999,0.03420845333908886,-0.0757472895365539,-0.09896016858807849,1756823028.175654
-0.334995164,-1.4045868661999998,9.918249676999999,0.006108652381980153,-0.14172073526193954,-0.07696902001294993,1756823028.183653
-0.2608176634,-1.4859428345999999,9.812965482600001,-0.0158824961931484,-0.13805554383275148,-0.07696902001294993,1756823028.191668
-0.2321037922,-1.5337992865999999,9.750752095,-0.007330382858376184,-0.17715091907742445,-0.06230825429619756,1756823028.199623
-0.203389921,-1.6151552550000001,9.669396126599999,-0.06475171524898962,-0.14172073526193954,-0.01832595714594046,1756823028.207669
-0.11724830739999999,-1.6821542877999998,9.6358966102,-0.01832595714594046,-0.11606439525762292,-0.02076941809873252,1756823028.215623
-0.09571290399999999,-1.7491533205999998,9.6813602396,-0.0317649923862968,-0.11850785621041497,-0.003665191429188092,1756823028.223606
-0.0669990328,-1.7587246109999999,9.7842516114,-0.0317649923862968,-0.10629055144645466,-0.004886921905584123,1756823028.231650
-0.0215354034,-1.7706887239999998,9.894321451,0.03298672286269283,-0.09651670763528643,-0.019547687622336492,1756823028.239611
0.0167497582,-1.7419748528,9.9708917742,-0.0012217304763960308,-0.09896016858807849,0.03787364476827695,1756823028.247660
0.0215354034,-1.7371892076,10.045069274799998,0.039095375244672985,-0.08674286382411818,0.02199114857512855,1756823028.256033
0.0741775006,-1.7324035624,10.109675484999999,0.02076941809873252,-0.08918632477691024,0.012217304763960306,1756823028.263632
0.07178467799999999,-1.7276179172,10.1312108884,0.0158824961931484,-0.06963863715457375,0.004886921905584123,1756823028.271630
0.035892338999999995,-1.4979069475999998,10.162317582199998,0.05619960191421741,-0.03298672286269283,0.0317649923862968,1756823028.279632
0.2177468566,-1.6797614652,10.372885970999999,0.019547687622336492,-0.05375614096142535,-0.03665191429188092,1756823028.287654
0.22492532440000002,-1.7204394494,10.4183496004,0.0158824961931484,-0.0635299847725936,-0.02199114857512855,1756823028.295670
0.22013967919999997,-1.7563317884,10.389635729199998,0.01710422666954443,-0.03665191429188092,-0.05375614096142535,1756823028.303629
0.20578274359999998,-1.698904046,10.3681003258,0.024434609527920613,0.003665191429188092,-0.08552113334772216,1756823028.311690
0.167497582,-1.5816557386,10.162317582199998,0.025656340004316644,-0.004886921905584123,-0.1356120828799594,1756823028.319619
0.107677017,-1.4572289634,9.9397850804,0.013439035240356337,0.013439035240356337,-0.13072516097437528,1756823028.327666
0.0047856452,-1.351944769,9.7722874984,0.0,0.024434609527920613,-0.08674286382411818,1756823028.335635
-0.11006983959999998,-1.2418749294,9.6502535458,-0.023212879051524585,0.05253441048502932,-0.15027284859671178,1756823028.343656
-0.1483550012,-1.1868400096,9.647860723199999,-0.0317649923862968,0.10140362954087054,-0.15393804002589986,1756823028.351661
-0.2679961312,-1.1389835575999998,9.667003304,-0.04153883619746504,0.11850785621041497,-0.15027284859671178,1756823028.360230
-0.3780659708,-1.0552347666,9.810572659999998,-0.025656340004316644,0.15027284859671178,-0.17348572764823636,1756823028.367634
-0.5455635528,-0.9834500885999999,9.894321451,0.03665191429188092,0.16004669240788003,-0.17715091907742445,1756823028.375655
-0.6891329088,-0.9475577495999999,9.9110712092,-0.003665191429188092,0.13316862192716733,-0.1795943800302165,1756823028.383641
-0.8422735552,-0.9212367009999999,9.8799645154,0.010995574287564275,0.13439035240356337,-0.19303341527057286,1756823028.391656
-0.9475577495999999,-1.0384850084,9.822536773,0.02076941809873252,0.10873401239924674,-0.1795943800302165,1756823028.399673
-1.0193424275999998,-1.1772687192,9.798608546999999,0.02076941809873252,0.06841690667817772,-0.19058995431778078,1756823028.407658
-1.0935199281999999,-1.3016954943999999,9.8249295956,0.03420845333908886,0.003665191429188092,-0.13805554383275148,1756823028.415650
-1.0671988796,-1.3208380752,9.789037256599999,0.0439822971502571,-0.059864793343405505,-0.1514945790731078,1756823028.423657
-1.0624132344,-1.4189438017999998,9.8273224182,0.05375614096142535,-0.14172073526193954,-0.1282817000215832,1756823028.431645
-0.9858429112,-1.3974083984,9.786644434,0.03420845333908886,-0.20769418098732523,-0.10262536001726658,1756823028.439627
-0.8877371845999998,-1.4333007374,9.738787982,0.040317105721069016,-0.2736676267127109,-0.08552113334772216,1756823028.447623
-0.7369893607999999,-1.4739787215999998,9.6406822554,0.04520402762665313,-0.3420845333908886,-0.08307767239493008,1756823028.455816
-0.6125625856,-1.5242279962,9.628718142399999,0.029321531433504737,-0.36896258641830876,-0.05009094953223726,1756823028.463634
-0.49531427819999996,-1.5290136414,9.674181771799999,0.010995574287564275,-0.4043927876870862,-0.024434609527920613,1756823028.471631
-0.3756731482,-1.5409777543999998,9.7698946758,0.01710422666954443,-0.3995058483282095,-0.05375614096142535,1756823028.479633
-0.28713871199999996,-1.5098710605999999,9.887142983199999,-0.023212879051524585,-0.37629296927668493,-0.004886921905584123,1756823028.487642
-0.09571290399999999,-1.4739787215999998,9.999605645399999,-0.0158824961931484,-0.39584067435231396,0.0024434609527920616,1756823028.495655
0.007178467799999999,-1.43569356,10.085747258999998,-0.05497787143782138,-0.36529741244241315,0.0024434609527920616,1756823028.503656
0.1459621786,-1.4021940436,10.1718888726,-0.08552113334772216,-0.33719761148530447,0.019547687622336492,1756823028.511669
0.2129612114,-1.4069796888,10.238887905399999,-0.06475171524898962,-0.3335324375094089,0.035430183815484885,1756823028.519635
0.28474588939999995,-1.471585899,10.234102260199998,-0.10506882097005864,-0.30909779307490326,0.05497787143782138,1756823028.527672
0.3182454058,-1.4835500119999998,10.253244840999999,-0.0916297857297023,-0.2797762965479835,0.11239920382843482,1756823028.535637
0.3278166962,-1.5792629159999998,10.2556376636,-0.10506882097005864,-0.2528982086139784,0.05131268000863329,1756823028.543683
0.2656033086,-1.6103696097999998,10.222138147199999,-0.079412480965742,-0.21380283336930536,0.07696902001294993,1756823028.551667
0.31106693799999996,-1.67497582,10.234102260199998,-0.04520402762665313,-0.20891591146372127,0.05742133239061344,1756823028.559672
0.275174599,-1.7084753364,10.238887905399999,-0.05619960191421741,-0.1954768762233649,0.06475171524898962,1756823028.567641
0.2679961312,-1.6606188843999998,10.1264252432,-0.02199114857512855,-0.18570303241219668,0.05375614096142535,1756823028.575638
0.2679961312,-1.6223337227999999,10.0881400816,-0.006108652381980153,-0.1942551457469689,0.008552113334772215,1756823028.583646
0.24167508259999998,-1.495514125,9.966106128999998,-0.02199114857512855,-0.20036379812894903,-0.009773843811168246,1756823028.591663
0.2584248408,-1.3591232368,9.8751788702,0.02076941809873252,-0.20036379812894903,-0.040317105721069016,1756823028.599690
0.2679961312,-1.2873385588,9.7842516114,0.003665191429188092,-0.19181168479417682,-0.0012217304763960308,1756823028.607628
0.2967100024,-1.1748758966,9.767501853199999,0.023212879051524585,-0.17837264955382048,-0.04642575810304917,1756823028.615661
0.3517449222,-1.1270194446,9.810572659999998,-0.006108652381980153,-0.16493361431346412,-0.023212879051524585,1756823028.623617
0.3756731482,-1.0432706536,9.918249676999999,0.010995574287564275,-0.1356120828799594,-0.05009094953223726,1756823028.631673
0.3613162126,-0.9116654106,10.0283195166,0.03298672286269283,-0.10262536001726658,-0.05131268000863329,1756823028.639626
0.36849468039999994,-0.861416136,10.0546405652,0.026878070480712675,-0.0635299847725936,-0.07452555906015787,1756823028.647637
0.38045879339999994,-0.8709874264,10.042676452199998,0.019547687622336492,-0.05009094953223726,-0.040317105721069016,1756823028.655936
0.3613162126,-0.9858429112,10.025926693999999,0.006108652381980153,-0.02076941809873252,-0.01710422666954443,1756823028.663640
0.3517449222,-1.0528419439999999,10.021141048799999,0.026878070480712675,0.019547687622336492,-0.06963863715457375,1756823028.671687
0.33738798659999997,-1.1222337993999998,10.0283195166,0.024434609527920613,0.03420845333908886,-0.0317649923862968,1756823028.679649
0.32303105099999996,-1.1581261384,10.0235338714,0.01710422666954443,0.019547687622336492,0.004886921905584123,1756823028.687625
0.28713871199999996,-1.1868400096,9.990034354999999,0.013439035240356337,0.01832595714594046,-0.010995574287564275,1756823028.695639
0.2895315346,-1.31605243,9.961320483799998,-0.01832595714594046,0.025656340004316644,0.01832595714594046,1756823028.703661
0.2608176634,-1.4620146085999999,9.887142983199999,-0.0158824961931484,0.04153883619746504,0.028099800957108706,1756823028.711649
0.23688943739999999,-1.5649059803999998,9.798608546999999,0.025656340004316644,0.06597344572538566,0.05131268000863329,1756823028.719655
0.2464607278,-1.6031911419999998,9.750752095,-0.013439035240356337,0.07819075048934597,0.07330382858376185,1756823028.727638
0.275174599,-1.6103696097999998,9.7722874984,0.007330382858376184,0.09040805525330627,0.08063421144213803,1756823028.735642
0.3038884702,-1.5218351735999998,9.848857821600001,-0.023212879051524585,0.11362093430483085,0.11606439525762292,1756823028.743612
0.3062812928,-1.4859428345999999,9.927820967399999,-0.030543261909900768,0.1270599695451872,0.11362093430483085,1756823028.751624
0.30149564759999997,-1.4835500119999998,10.04985492,-0.01710422666954443,0.12095131716320703,0.12950343049797924,1756823028.759696
0.23928226,-1.5146567058,10.1024970172,-0.04642575810304917,0.16126842288427606,0.18081611050661253,1756823028.767636
0.23688943739999999,-1.5266208188,10.157531936999998,0.007330382858376184,0.1637118838370681,0.158824961931484,1756823028.775700
0.15074782379999999,-1.5529418674,10.157531936999998,-0.029321531433504737,0.20525072003453315,0.1747074581246324,1756823028.783642
0.047856451999999994,-1.6031911419999998,10.1168539528,-0.010995574287564275,0.22602013813326566,0.15760323145508795,1756823028.791684
-0.0693918554,-1.5720844482,10.145567823999999,0.024434609527920613,0.21135937241651329,0.14172073526193954,1756823028.799632
-0.1531406464,-1.5696916256,10.1407821788,0.007330382858376184,0.22357667718047364,0.16859880574265224,1756823028.807641
-0.2799602442,-1.5649059803999998,10.133603711,0.023212879051524585,0.21380283336930536,0.1282817000215832,1756823028.815630
-0.4163511324,-1.5984054967999999,10.0402836296,0.003665191429188092,0.18570303241219668,0.12095131716320703,1756823028.823627
-0.5240281494,-1.5720844482,9.9804630646,-0.003665191429188092,0.1832595714594046,0.10384709049366261,1756823028.831708
-0.6221338759999999,-1.5840485612,9.906285564,0.019547687622336492,0.13439035240356337,0.05131268000863329,1756823028.839644
-0.6771687958,-1.5529418674,9.9038927414,0.026878070480712675,0.08552113334772216,0.06719517620178168,1756823028.847656
-0.693918554,-1.4428720278,9.877571692799998,0.05009094953223726,0.039095375244672985,0.01832595714594046,1756823028.855647
-0.6891329088,-1.3040883169999997,9.7603233854,0.040317105721069016,-0.009773843811168246,0.019547687622336492,1756823028.863674
-0.6197410534,-1.1916256548,9.726823868999999,0.06719517620178168,-0.059864793343405505,-0.030543261909900768,1756823028.871660
-0.5359922624,-1.1174481541999999,9.7005028204,0.029321531433504737,-0.10018189906447451,-0.030543261909900768,1756823028.879616
-0.48574298779999997,-1.088734283,9.7124669334,0.025656340004316644,-0.10629055144645466,-0.05131268000863329,1756823028.887787
-0.40917266459999996,-1.0552347666,9.810572659999998,0.025656340004316644,-0.11606439525762292,-0.03665191429188092,1756823028.895629
-0.3278166962,-1.0384850084,9.848857821600001,0.059864793343405505,-0.12461650859239512,-0.024434609527920613,1756823028.903658
-0.28474588939999995,-1.0552347666,9.9206424996,0.09896016858807849,-0.1282817000215832,-0.026878070480712675,1756823028.911638
-0.22013967919999997,-1.0193424275999998,9.930213789999998,0.059864793343405505,-0.12217304763960307,-0.039095375244672985,1756823028.919620
-0.24167508259999998,-1.088734283,9.9804630646,0.07330382858376185,-0.11972958668681101,-0.03420845333908886,1756823028.927657
-0.1483550012,-1.1341979124,10.0163554036,0.0635299847725936,-0.11972958668681101,-0.01832595714594046,1756823028.935672
-0.1651047594,-1.1222337993999998,10.0115697584,0.059864793343405505,-0.10384709049366261,0.008552113334772215,1756823028.943629
-0.1268195978,-1.2035897677999998,10.033105161799998,0.04642575810304917,-0.10873401239924674,-0.061086523819801536,1756823028.951652
-0.0861416136,-1.1389835575999998,9.9732845968,0.01710422666954443,-0.11972958668681101,-0.07452555906015787,1756823028.959663
-0.0023928226,-1.2394821068,10.001998467999998,0.026878070480712675,-0.19058995431778078,-0.05742133239061344,1756823028.967650
0.0741775006,-1.375872995,9.985248709799999,-0.012217304763960306,-0.18448130193580065,-0.07086036763096977,1756823028.975665
0.1292124204,-1.5002997702,9.853643466799998,-0.039095375244672985,-0.16493361431346412,-0.0635299847725936,1756823028.983651
0.2727817764,-1.6295121905999999,9.762716207999999,-0.05619960191421741,-0.18203784098300857,-0.05009094953223726,1756823028.991620
0.3493520996,-1.6941184007999999,9.7244310464,-0.07330382858376185,-0.16493361431346412,-0.04276056667386108,1756823028.999677
0.4354937132,-1.7706887239999998,9.8010013696,-0.04520402762665313,-0.1747074581246324,-0.026878070480712675,1756823029.007648
0.46899322959999995,-1.8089738855999997,9.8177511278,-0.035430183815484885,-0.11239920382843482,0.025656340004316644,1756823029.015691
0.5000999234,-1.7850456595999997,9.8991070962,-0.012217304763960306,-0.08552113334772216,0.03665191429188092,1756823029.023616
0.5216353268,-1.7371892076,9.978070242,0.0024434609527920616,-0.04642575810304917,0.035430183815484885,1756823029.031722
0.46899322959999995,-1.6965112234,10.0666046782,0.047647488579445195,-0.010995574287564275,0.029321531433504737,1756823029.039662
0.42352960019999997,-1.6031911419999998,10.078568791199999,0.030543261909900768,0.05131268000863329,0.05742133239061344,1756823029.047628
0.3756731482,-1.5577275126,10.0881400816,0.05009094953223726,0.035430183815484885,0.01832595714594046,1756823029.055634
0.3493520996,-1.471585899,10.164710404800001,0.026878070480712675,0.06841690667817772,0.0317649923862968,1756823029.063639
0.2608176634,-1.4763715441999998,10.191031453399999,0.019547687622336492,0.08063421144213803,0.028099800957108706,1756823029.071610
0.2177468566,-1.4859428345999999,10.16949605,0.013439035240356337,0.06841690667817772,-0.03420845333908886,1756823029.079627
0.1339980656,-1.5218351735999998,10.1001041946,0.003665191429188092,0.07696902001294993,0.004886921905584123,1756823029.087627
0.059820565,-1.4524433181999998,10.1001041946,0.013439035240356337,0.048869219055841226,0.025656340004316644,1756823029.095613
0.083748791,-1.43569356,10.164710404800001,0.0,0.04153883619746504,-0.024434609527920613,1756823029.103613
0.0,-1.4333007374,10.145567823999999,0.030543261909900768,-0.010995574287564275,-0.05619960191421741,1756823029.111991
-0.0215354034,-1.423729447,9.9732845968,0.0158824961931484,-0.009773843811168246,-0.05742133239061344,1756823029.119615
-0.05503491979999999,-1.3112667848,9.808179837399999,0.0024434609527920616,-0.026878070480712675,-0.01710422666954443,1756823029.127623
-0.1220339526,-0.8327022648,9.6143612068,0.007330382858376184,-0.013439035240356337,-0.10629055144645466,1756823029.135627
-0.059820565,-1.1892328321999999,9.8560362894,-0.019547687622336492,-0.10629055144645466,-0.14416419621473162,1756823029.143632
0.059820565,-1.2059825903999999,9.8967142736,-0.07452555906015787,-0.04642575810304917,-0.10629055144645466,1756823029.151662
0.1292124204,-1.1676974288,9.812965482600001,0.0024434609527920616,-0.030543261909900768,-0.079412480965742,1756823029.159650
0.1746760498,-1.3016954943999999,9.954142015999999,0.01710422666954443,0.025656340004316644,-0.059864793343405505,1756823029.167681
0.20578274359999998,-1.2514462198,9.9445707256,0.08185594191853406,0.04153883619746504,-0.10262536001726658,1756823029.175617
0.19381863059999999,-1.2514462198,9.9732845968,0.08552113334772216,0.06230825429619756,-0.08552113334772216,1756823029.183620
0.1483550012,-1.2059825903999999,10.0283195166,0.07330382858376185,0.04153883619746504,-0.12461650859239512,1756823029.191630
0.1339980656,-1.1437692028,10.0666046782,0.079412480965742,0.04153883619746504,-0.10629055144645466,1756823029.199617
0.1052841944,-1.1964112999999998,10.150353469199999,0.029321531433504737,0.039095375244672985,-0.08918632477691024,1756823029.207637
0.07178467799999999,-1.3040883169999997,10.217352501999999,0.03665191429188092,0.05497787143782138,-0.07330382858376185,1756823029.215615
0.007178467799999999,-1.3710873497999998,10.145567823999999,0.0158824961931484,0.048869219055841226,-0.026878070480712675,1756823029.223600
0.0382851616,-1.4907284798,10.1479606466,0.0,0.061086523819801536,-0.030543261909900768,1756823029.231648
-0.035892338999999995,-1.5888342063999998,10.0666046782,-0.006108652381980153,0.028099800957108706,-0.040317105721069016,1756823029.239617
-0.059820565,-1.7324035624,9.994820000199999,-0.04520402762665313,0.009773843811168246,-0.040317105721069016,1756823029.247628
-0.0861416136,-1.7874384822,9.870393224999999,-0.0158824961931484,-0.014660765716752368,-0.013439035240356337,1756823029.255672
-0.1292124204,-1.8209379985999998,9.8201439504,-0.02076941809873252,0.012217304763960306,-0.023212879051524585,1756823029.263640
-0.19381863059999999,-1.7611174335999997,9.738787982,-0.035430183815484885,0.01832595714594046,0.0012217304763960308,1756823029.271662
-0.1292124204,-1.7539389658,9.7196454012,-0.006108652381980153,0.01832595714594046,0.0012217304763960308,1756823029.279625
-0.1770688724,-1.7682959014,9.7244310464,-0.012217304763960306,0.013439035240356337,-0.023212879051524585,1756823029.287654
-0.1459621786,-1.7324035624,9.803394192199999,0.013439035240356337,-0.007330382858376184,0.03787364476827695,1756823029.295666
-0.1339980656,-1.6845471104,9.8967142736,0.048869219055841226,-0.030543261909900768,-0.02076941809873252,1756823029.303628
-0.11246266220000001,-1.5792629159999998,9.958927661199999,0.013439035240356337,-0.059864793343405505,0.04642575810304917,1756823029.311718
-0.0669990328,-1.6366906583999998,10.033105161799998,0.03665191429188092,-0.06963863715457375,-0.012217304763960306,1756823029.319676
-0.031106693799999998,-1.5864413838,10.1359965336,0.05253441048502932,-0.08918632477691024,0.03420845333908886,1756823029.327647
-0.031106693799999998,-1.5361921092,10.2149596794,0.06963863715457375,-0.0757472895365539,0.0024434609527920616,1756823029.335677
0.09092725880000001,-1.5529418674,10.305886938199999,0.0635299847725936,-0.10262536001726658,-0.007330382858376184,1756823029.343628
0.09332008139999999,-1.5481562222,10.389635729199998,0.09285151620609834,-0.09285151620609834,-0.010995574287564275,1756823029.351697
0.062213387599999996,-1.4380863825999999,10.341779277199999,0.08552113334772216,-0.08063421144213803,-0.03787364476827695,1756823029.359688
0.0885344362,-1.3016954943999999,10.159924759599999,0.040317105721069016,-0.09529497715889039,-0.01832595714594046,1756823029.367679
0.11006983959999998,-1.2418749294,9.9397850804,0.007330382858376184,-0.11239920382843482,-0.061086523819801536,1756823029.375647
0.1052841944,-1.1724830739999998,9.7603233854,-0.019547687622336492,-0.10140362954087054,-0.039095375244672985,1756823029.383633
0.1722832272,-1.2035897677999998,9.7196454012,-0.05009094953223726,-0.11239920382843482,-0.0439822971502571,1756823029.391630
0.2225325018,-1.1796615417999998,9.741180804599999,-0.019547687622336492,-0.08552113334772216,-0.040317105721069016,1756823029.399625
0.26321048599999997,-1.1174481541999999,9.7435736272,-0.012217304763960306,-0.06963863715457375,-0.047647488579445195,1756823029.407666
0.32542387359999997,-1.0983055734,9.8273224182,0.003665191429188092,-0.048869219055841226,-0.030543261909900768,1756823029.415633
0.39481572899999995,-1.136590735,9.9517491934,0.008552113334772215,-0.025656340004316644,-0.040317105721069016,1756823029.423642
0.3541377448,-1.1700902514,9.9397850804,-0.003665191429188092,0.028099800957108706,-0.05375614096142535,1756823029.431693
0.3182454058,-1.2203395259999998,9.9445707256,0.013439035240356337,0.05375614096142535,-0.07086036763096977,1756823029.439634
0.28713871199999996,-1.3016954943999999,9.9206424996,0.007330382858376184,0.061086523819801536,-0.030543261909900768,1756823029.447646
0.2225325018,-1.328016543,9.9373922578,0.026878070480712675,0.10995574287564276,-0.05375614096142535,1756823029.455623
0.1579262916,-1.4333007374,9.966106128999998,0.02076941809873252,0.10018189906447451,-0.013439035240356337,1756823029.463666
0.07178467799999999,-1.4691930763999999,9.997212822799998,-0.003665191429188092,0.1075122819228507,0.025656340004316644,1756823029.471641
0.014356935599999999,-1.495514125,10.009176935799998,-0.019547687622336492,0.0916297857297023,0.008552113334772215,1756823029.479672
-0.028713871199999998,-1.5529418674,9.978070242,-0.013439035240356337,0.10506882097005864,0.040317105721069016,1756823029.487639
-0.062213387599999996,-1.6654045296,9.958927661199999,-0.01710422666954443,0.08429940287132612,0.0635299847725936,1756823029.495632
-0.0765703232,-1.6797614652,9.834500885999999,-0.0158824961931484,0.05497787143782138,0.04153883619746504,1756823029.503652
-0.11724830739999999,-1.6917255781999998,9.786644434,-0.0317649923862968,0.061086523819801536,0.0317649923862968,1756823029.511670
-0.0981057266,-1.7276179172,9.789037256599999,0.0024434609527920616,0.04153883619746504,0.07452555906015787,1756823029.519615
-0.1220339526,-1.7324035624,9.8057870148,-0.008552113334772215,0.025656340004316644,0.05009094953223726,1756823029.527647
-0.0885344362,-1.7300107398,9.8440721764,0.019547687622336492,0.008552113334772215,0.10018189906447451,1756823029.535628
-0.0502492746,-1.7204394494,9.918249676999999,0.039095375244672985,-0.009773843811168246,0.079412480965742,1756823029.543658
-0.0430708068,-1.6845471104,10.013962581,0.0439822971502571,-0.013439035240356337,0.10262536001726658,1756823029.551631
-0.0167497582,-1.6175480776,10.1766745178,0.059864793343405505,-0.023212879051524585,0.09040805525330627,1756823029.559929
0.023928225999999997,-1.5553346899999998,10.313065405999998,0.06963863715457375,0.0,0.07696902001294993,1756823029.567708
0.0382851616,-1.5050854154,10.384850083999998,0.06963863715457375,0.006108652381980153,0.09040805525330627,1756823029.575633
0.023928225999999997,-1.4093725114,10.353743390199998,0.05742133239061344,-0.004886921905584123,0.10629055144645466,1756823029.583645
-0.007178467799999999,-1.2825529136,10.133603711,0.05619960191421741,-0.014660765716752368,0.08918632477691024,1756823029.591671
-0.028713871199999998,-1.1820543644,9.985248709799999,0.03298672286269283,-0.023212879051524585,0.10873401239924674,1756823029.599618
-0.062213387599999996,-1.1533404932,9.9158568544,-0.009773843811168246,-0.019547687622336492,0.10384709049366261,1756823029.607630
-0.0382851616,-1.124626622,9.882357337999998,-0.012217304763960306,-0.0439822971502571,0.09529497715889039,1756823029.615667
-0.09332008139999999,-1.1533404932,9.9708917742,-0.019547687622336492,0.008552113334772215,0.12217304763960307,1756823029.623616
-0.11724830739999999,-1.136590735,10.0187482262,-0.003665191429188092,0.02199114857512855,0.10018189906447451,1756823029.631667
-0.16271193679999998,-1.0767701699999999,9.9804630646,0.03665191429188092,0.014660765716752368,0.09896016858807849,1756823029.639681
-0.1651047594,-1.0480562988,9.8967142736,0.014660765716752368,0.024434609527920613,0.09040805525330627,1756823029.647633
-0.203389921,-1.1198409768,9.753144917599998,0.04276056667386108,0.008552113334772215,0.08063421144213803,1756823029.655648
-0.2440679052,-1.1964112999999998,9.7770731436,0.023212879051524585,-0.010995574287564275,0.05497787143782138,1756823029.663679
-0.2799602442,-1.2466605746,9.7651090306,0.05009094953223726,-0.007330382858376184,0.07819075048934597,1756823029.671660
-0.2464607278,-1.2275179938,9.8727860476,0.08185594191853406,-0.029321531433504737,0.05742133239061344,1756823029.679634
-0.2679961312,-1.3567304141999998,9.9158568544,0.040317105721069016,-0.030543261909900768,0.079412480965742,1756823029.687634
-0.2919243572,-1.2394821068,9.8751788702,0.05619960191421741,-0.05253441048502932,0.061086523819801536,1756823029.695637
-0.3565305674,-1.375872995,9.9349994352,0.03665191429188092,-0.03420845333908886,0.047647488579445195,1756823029.703654
-0.32542387359999997,-1.3806586401999998,9.894321451,0.019547687622336492,-0.04276056667386108,0.0439822971502571,1756823029.711693
-0.3278166962,-1.4979069475999998,9.7698946758,-0.003665191429188092,-0.05742133239061344,0.03420845333908886,1756823029.719632
-0.3062812928,-1.6486547713999997,9.583254513,-0.007330382858376184,-0.0757472895365539,0.0635299847725936,1756823029.727659
-0.2919243572,-1.7946169499999998,9.422935398799998,0.02076941809873252,-0.10384709049366261,0.061086523819801536,1756823029.735654
-0.2823530668,-1.8448662246,9.437292334399999,0.03787364476827695,-0.11239920382843482,0.05131268000863329,1756823029.743633
-0.1890329854,-1.8687944506,9.556933464399998,0.04276056667386108,-0.10995574287564276,0.0024434609527920616,1756823029.751617
-0.13160524299999998,-1.7324035624,9.8153583052,0.07696902001294993,-0.12217304763960307,0.047647488579445195,1756823029.759765
-0.045463629400000004,-1.6534404165999999,9.9756774194,0.05742133239061344,-0.11239920382843482,0.008552113334772215,1756823029.767664
-0.011964112999999998,-1.4907284798,10.16949605,0.09529497715889039,-0.12339477811599911,0.07086036763096977,1756823029.775633
-0.0047856452,-1.3591232368,10.2939228252,0.05742133239061344,-0.12950343049797924,0.03420845333908886,1756823029.783632
0.014356935599999999,-1.3328021881999998,10.313065405999998,0.03420845333908886,-0.10995574287564276,0.05009094953223726,1756823029.791670
-0.014356935599999999,-1.2538390423999999,10.3274223416,0.04276056667386108,-0.12217304763960307,0.06719517620178168,1756823029.799629
-0.062213387599999996,-1.2993026717999998,10.2963156478,-0.013439035240356337,-0.10506882097005864,0.035430183815484885,1756823029.807652
-0.13160524299999998,-1.363908882,10.2269237924,0.0012217304763960308,-0.12583823906879116,0.07696902001294993,1756823029.815676
-0.1722832272,-1.4739787215999998,10.186245808199999,-0.03298672286269283,-0.10018189906447451,0.08429940287132612,1756823029.823613
-0.15553346899999998,-1.5601203352,10.1407821788,0.0,-0.11484266478122689,0.0317649923862968,1756823029.831669
-0.1651047594,-1.6606188843999998,10.1790673404,0.0439822971502571,-0.1624901533606721,0.019547687622336492,1756823029.839634
-0.1698904046,-1.6247265453999997,10.1742816952,0.05009094953223726,-0.1747074581246324,0.028099800957108706,1756823029.847648
-0.18664016279999998,-1.471585899,10.0570333878,0.08307767239493008,-0.19181168479417682,0.04642575810304917,1756823029.855628
-0.13160524299999998,-1.3040883169999997,9.927820967399999,0.05253441048502932,-0.2553416695667704,0.008552113334772215,1756823029.863821
-0.0526420972,-1.136590735,9.8273224182,0.0012217304763960308,-0.2528982086139784,0.04153883619746504,1756823029.871657
0.0430708068,-1.0935199281999999,9.8440721764,0.01710422666954443,-0.2528982086139784,-0.02076941809873252,1756823029.879649
0.167497582,-1.0935199281999999,9.8967142736,0.007330382858376184,-0.2577851305195625,0.028099800957108706,1756823029.887612
0.31106693799999996,-1.1054840412,9.978070242,-0.023212879051524585,-0.2309070600388498,0.012217304763960306,1756823029.895649
0.48574298779999997,-1.1700902514,9.963713306399999,-0.040317105721069016,-0.21380283336930536,-0.010995574287564275,1756823029.903653
0.6340979889999999,-1.2131610581999999,9.9517491934,-0.035430183815484885,-0.15271630954950383,0.004886921905584123,1756823029.911674
0.7513462964,-1.1940184774,9.9804630646,0.0439822971502571,-0.16859880574265224,-0.013439035240356337,1756823029.919638
0.8087740388,-1.1509476706,9.9804630646,0.02076941809873252,-0.14905111812031574,0.0439822971502571,1756823029.927635
0.8662017812,-1.2035897677999998,10.001998467999998,0.03665191429188092,-0.13194689145077132,0.05131268000863329,1756823029.935632
0.9020941201999999,-1.2203395259999998,9.9804630646,0.026878070480712675,-0.11362093430483085,0.028099800957108706,1756823029.943677
0.95712904,-1.208375413,9.9732845968,0.026878070480712675,-0.061086523819801536,0.06719517620178168,1756823029.951628
0.8446663778,-1.2705888006000001,9.9565348386,0.04520402762665313,-0.03420845333908886,0.059864793343405505,1756823029.959652
0.8422735552,-1.2586246876,9.9708917742,0.02199114857512855,-0.003665191429188092,0.11850785621041497,1756823029.967678
0.7202396025999999,-1.2849457362,9.997212822799998,0.019547687622336492,0.035430183815484885,0.12461650859239512,1756823029.975633
0.6197410534,-1.256231865,10.0163554036,0.035430183815484885,0.06230825429619756,0.10262536001726658,1756823029.983656
0.5527420206,-1.2514462198,9.963713306399999,-0.003665191429188092,0.09529497715889039,0.1392772743091475,1756823029.991672
0.4283152454,-1.2251251712,9.8967142736,0.009773843811168246,0.09773843811168245,0.11972958668681101,1756823029.999627
0.31106693799999996,-1.2370892842,9.8321080634,-0.007330382858376184,0.12461650859239512,0.2040289895581371,1756823030.007627
0.24167508259999998,-1.2418749294,9.786644434,-0.0024434609527920616,0.15760323145508795,0.20158552860534507,1756823030.015647
0.1363908882,-1.339980656,9.848857821600001,-0.03298672286269283,0.14538592669112765,0.22113321622768156,1756823030.023616
-0.0167497582,-1.4500504955999998,9.8680004024,-0.02076941809873252,0.17348572764823636,0.24678955623199822,1756823030.031657
-0.1579262916,-1.5792629159999998,9.853643466799998,-0.006108652381980153,0.18692476288859272,0.2797762965479835,1756823030.039652
-0.32303105099999996,-1.6462619487999999,9.822536773,0.0158824961931484,0.18448130193580065,0.30421088862261164,1756823030.047655
-0.45702911659999995,-1.6127624323999998,9.803394192199999,0.09285151620609834,0.15393804002589986,0.30543261909900765,1756823030.055665
-0.6245266986,-1.6247265453999997,9.8440721764,0.08674286382411818,0.15638150097869194,0.30543261909900765,1756823030.063614
-0.7106683122,-1.5649059803999998,9.985248709799999,0.08429940287132612,0.13072516097437528,0.3225368457685521,1756823030.071627
-0.7561319416,-1.5337992865999999,10.085747258999998,0.11850785621041497,0.08674286382411818,0.2797762965479835,1756823030.079672
-0.8087740388,-1.543370577,10.2245309698,0.058643062867009474,0.0635299847725936,0.26633724385433466,1756823030.087615
-0.8015955709999999,-1.6031911419999998,10.2197453246,0.0635299847725936,-0.0012217304763960308,0.2993239667170275,1756823030.095615
-0.7561319416,-1.5984054967999999,10.155139114399999,0.039095375244672985,-0.04642575810304917,0.2565634000431664,1756823030.103642
-0.7034898444,-1.6127624323999998,10.080961613800001,0.019547687622336492,-0.10629055144645466,0.24678955623199822,1756823030.111634
-0.6053841178,-1.5098710605999999,9.923035322199999,-0.009773843811168246,-0.1954768762233649,0.18203784098300857,1756823030.119660
-0.45942193919999996,-1.4309079147999997,9.774680320999998,-0.039095375244672985,-0.2700024352835228,0.21991148575128552,1756823030.127627
-0.28713871199999996,-1.4141581565999999,9.7220382238,-0.009773843811168246,-0.3127630019573839,0.16859880574265224,1756823030.135653
-0.11246266220000001,-1.3854442854,9.7292166916,-0.03665191429188092,-0.35796702958403703,0.1881464933649887,1756823030.143614
0.10289137179999999,-1.2993026717999998,9.7603233854,-0.010995574287564275,-0.33841932450840795,0.13805554383275148,1756823030.151661
0.26321048599999997,-1.2610175102,9.8273224182,0.01710422666954443,-0.3494149162492648,0.14782938764391973,1756823030.159615
0.4163511324,-1.1748758966,9.8368937086,0.02199114857512855,-0.32009338481576005,0.11972958668681101,1756823030.167636
0.5575276658,-1.1318050897999998,9.887142983199999,0.0439822971502571,-0.28099800957108706,0.11606439525762292,1756823030.175639
0.6747759731999999,-1.1341979124,9.958927661199999,0.048869219055841226,-0.24678955623199822,0.11239920382843482,1756823030.183656
0.7968099258,-1.088734283,10.030712339199999,0.07330382858376185,-0.2272418686096617,0.08307767239493008,1756823030.191619
0.8781658942,-1.088734283,10.109675484999999,0.058643062867009474,-0.16615534478986016,0.07330382858376185,1756823030.199627
0.8781658942,-1.124626622,10.1431750014,0.05009094953223726,-0.14294246573833558,0.09773843811168245,1756823030.207608
0.873380249,-1.1964112999999998,10.1168539528,0.023212879051524585,-0.10262536001726658,0.10995574287564276,1756823030.215612
0.8542376682,-1.2490533972,10.1072826624,0.01710422666954443,-0.08552113334772216,0.09285151620609834,1756823030.223602
0.7800601676,-1.3423734786,10.0187482262,-0.023212879051524585,-0.024434609527920613,0.0879645943005142,1756823030.231666
0.7274180704000001,-1.4572289634,9.925428144799998,-0.013439035240356337,0.0012217304763960308,0.05375614096142535,1756823030.239637
0.6436692794,-1.471585899,9.8440721764,-0.025656340004316644,0.039095375244672985,0.11239920382843482,1756823030.247674
0.5886343596,-1.4859428345999999,9.803394192199999,0.0,0.07086036763096977,0.1270599695451872,1756823030.255627
0.5192425042,-1.4691930763999999,9.7794659662,0.007330382858376184,0.10140362954087054,0.12950343049797924,1756823030.263682
0.4163511324,-1.4572289634,9.8440721764,-0.006108652381980153,0.11362093430483085,0.0879645943005142,1756823030.271634
0.3756731482,-1.399801221,9.9086783866,0.02199114857512855,0.12339477811599911,0.1282817000215832,1756823030.279657
0.30867411539999995,-1.3351950108,9.978070242,0.0024434609527920616,0.13316862192716733,0.10629055144645466,1756823030.287650
0.23688943739999999,-1.3567304141999998,10.061819032999999,0.019547687622336492,0.14416419621473162,0.12217304763960307,1756823030.295670
0.15074782379999999,-1.3328021881999998,10.1479606466,0.003665191429188092,0.15393804002589986,0.10262536001726658,1756823030.303623
0.1004985492,-1.3232308977999998,10.1790673404,-0.009773843811168246,0.15393804002589986,0.061086523819801536,1756823030.311715
0.011964112999999998,-1.2921242039999998,10.1431750014,0.01710422666954443,0.13439035240356337,0.07086036763096977,1756823030.319626
-0.059820565,-1.363908882,10.1359965336,-0.013439035240356337,0.12461650859239512,0.09651670763528643,1756823030.327649
-0.0981057266,-1.4452648504,10.121639597999998,-0.028099800957108706,0.09407324668249435,0.05619960191421741,1756823030.335645
-0.1268195978,-1.4907284798,10.078568791199999,-0.030543261909900768,0.07819075048934597,0.08552113334772216,1756823030.343655
-0.16271193679999998,-1.4691930763999999,10.0666046782,-0.02199114857512855,0.06597344572538566,0.05497787143782138,1756823030.351680
-0.1890329854,-1.4213366244,10.1001041946,0.003665191429188092,0.024434609527920613,0.024434609527920613,1756823030.359665
-0.2129612114,-1.3208380752,10.0115697584,0.006108652381980153,0.004886921905584123,0.008552113334772215,1756823030.367661
-0.1531406464,-1.2370892842,9.997212822799998,0.010995574287564275,-0.026878070480712675,0.0012217304763960308,1756823030.375678
-0.19142580799999998,-1.1629117835999998,9.8967142736,0.026878070480712675,-0.023212879051524585,-0.013439035240356337,1756823030.383676
-0.14356935599999998,-1.160518961,9.901499918799999,0.019547687622336492,-0.03420845333908886,-0.023212879051524585,1756823030.391628
-0.0693918554,-1.1389835575999998,9.9326066126,0.04642575810304917,-0.040317105721069016,-0.07696902001294993,1756823030.399665
0.035892338999999995,-1.0911271056,10.0163554036,0.0439822971502571,-0.039095375244672985,-0.007330382858376184,1756823030.407629
0.1268195978,-1.016949605,10.145567823999999,0.059864793343405505,-0.026878070480712675,-0.04642575810304917,1756823030.415629
0.18664016279999998,-0.95712904,10.2460663732,0.059864793343405505,-0.07208209810736581,0.006108652381980153,1756823030.423617
0.2321037922,-0.9188438783999999,10.159924759599999,0.03665191429188092,-0.07330382858376185,0.08063421144213803,1756823030.431689
0.22013967919999997,-0.9954142015999999,10.0522477426,0.06597344572538566,-0.07696902001294993,0.02199114857512855,1756823030.439633
0.15074782379999999,-1.0432706536,9.994820000199999,0.03420845333908886,-0.07208209810736581,0.13194689145077132,1756823030.447653
0.1579262916,-1.1270194446,10.04985492,0.025656340004316644,-0.059864793343405505,0.08552113334772216,1756823030.455638
0.13160524299999998,-1.1724830739999998,10.030712339199999,0.014660765716752368,-0.040317105721069016,0.11972958668681101,1756823030.463834
0.1531406464,-1.2107682356,9.9756774194,-0.003665191429188092,-0.024434609527920613,0.08063421144213803,1756823030.471637
0.167497582,-1.2107682356,9.8919286284,0.05497787143782138,-0.024434609527920613,0.14905111812031574,1756823030.479627
0.22971096959999998,-1.1509476706,9.846464998999998,0.019547687622336492,-0.05742133239061344,0.12217304763960307,1756823030.487700
0.39481572899999995,-1.136590735,9.9397850804,0.01710422666954443,-0.08307767239493008,0.19792033717615698,1756823030.495629
0.5359922624,-1.0695917021999999,10.078568791199999,-0.007330382858376184,-0.08674286382411818,0.21380283336930536,1756823030.503695
0.7106683122,-1.0743773474,10.186245808199999,-0.04642575810304917,-0.09285151620609834,0.26633724385433466,1756823030.511645
0.8350950873999999,-1.100698396,10.2987084704,-0.0158824961931484,-0.09285151620609834,0.29565879274113194,1756823030.519624
0.9451649269999999,-1.1629117835999998,10.3704931484,-0.019547687622336492,-0.09407324668249435,0.3347541505325124,1756823030.527629
0.9906285563999999,-1.1318050897999998,10.336993631999999,-0.003665191429188092,-0.05375614096142535,0.35796702958403703,1756823030.535677
0.9834500885999999,-1.0241280728,10.2723874218,0.035430183815484885,-0.03420845333908886,0.37384952577718544,1756823030.543626
0.9667003303999999,-0.8925228297999999,10.1359965336,0.028099800957108706,0.025656340004316644,0.4740314248416599,1756823030.551680
0.9547362173999999,-0.7537391189999999,10.078568791199999,0.05009094953223726,0.08429940287132612,0.4850270165825167,1756823030.559608
0.9260223461999999,-0.6915257314,10.0642118556,0.006108652381980153,0.1514945790731078,0.537561392160961,1756823030.567654
0.8685946038,-0.681954441,10.1288180658,0.0158824961931484,0.20891591146372127,0.555887366760194,1756823030.575656
0.7896314579999999,-0.7465606511999999,10.241280727999998,0.0024434609527920616,0.2919935838586513,0.6108652381980153,1756823030.583666
0.6508477471999999,-0.7585247641999999,10.3872429066,0.023212879051524585,0.3860668479944382,0.5668829410477582,1756823030.591626
0.5264209719999999,-0.7369893607999999,10.466206052399999,0.06230825429619756,0.4508185457901353,0.6047566207226203,1756823030.599648
0.37088750299999995,-0.6364908116,10.336993631999999,0.07208209810736581,0.5290092788261888,0.6316346388434554,1756823030.607655
0.09571290399999999,-0.4642075844,10.0689975008,0.09896016858807849,0.5803219762881145,0.6255260039147678,1756823030.615879
-0.1363908882,-0.3397808092,9.774680320999998,0.08063421144213803,0.5986479159807625,0.635299882632521,1756823030.623665
-0.38763726119999997,-0.2895315346,9.5736832226,0.05619960191421741,0.614530412173911,0.6511823613723768,1756823030.631638
-0.6221338759999999,-0.275174599,9.415756930999999,0.10262536001726658,0.6304129083670593,0.6243042734383717,1756823030.639626
-0.8685946038,-0.2703889538,9.152546445,0.12095131716320703,0.6365215956556246,0.6670648575655254,1756823030.647663
-1.136590735,-0.2560320182,8.939585233599999,0.19792033717615698,0.6401867696315201,0.6707300315414209,1756823030.655638
-1.3351950108,-0.2129612114,8.7888374098,0.24434609527920614,0.6438519436074157,0.6511823613723768,1756823030.663990
-1.5314064639999998,-0.16271193679999998,8.681160392799999,0.29321529688175485,0.6560692658246685,0.6206390994624761,1756823030.671638
-1.7300107398,-0.15074782379999999,8.6907316832,0.39217546546983334,0.6524040918487729,0.6181955861498065,1756823030.679634
-1.9190437251999999,-0.107677017,8.793623055,0.4129449010218584,0.6328563518665589,0.6511823613723768,1756823030.687664
-2.1343977592,0.011964112999999998,9.0759761218,0.4654793115068877,0.5913175680289714,0.6181955861498065,1756823030.695652
-2.356930261,0.1004985492,9.4085784632,0.4508185457901353,0.5546656537370904,0.6524040918487729,1756823030.703651
-2.5459632464,0.20578274359999998,9.6454679006,0.4117231705454623,0.5119050696099369,0.6279694648675597,1756823030.711667
-2.6847469572,0.3613162126,9.767501853199999,0.37629296927668493,0.4520402762665313,0.596204472481263,1756823030.719626
-2.8019952645999995,0.4354937132,9.7220382238,0.2700024352835228,0.38117990863556156,0.5729916283363234,1756823030.727632
-2.8402804261999997,0.48574298779999997,9.5377908836,0.1942551457469689,0.2981022362406315,0.5644394800949663,1756823030.735680
-2.787638329,0.4642075844,9.33200814,0.10506882097005864,0.21991148575128552,0.498466016916288,1756823030.743665
-2.6632115537999996,0.5670989562,9.0831545896,0.01710422666954443,0.15638150097869194,0.4776966337241405,1756823030.751633
-2.5004996169999996,0.6245266986,9.028119669799999,-0.0317649923862968,0.06963863715457375,0.43249260609748735,1756823030.759641
-2.2875384056,0.7896314579999999,9.2267239456,-0.0916297857297023,0.0158824961931484,0.45937065912490754,1756823030.767676
-1.9429719511999999,0.9427721043999999,9.5856473356,-0.09651670763528643,-0.04276056667386108,0.38117990863556156,1756823030.775645
-1.5888342063999998,1.1318050897999998,10.0474620974,-0.1282817000215832,-0.1392772743091475,0.378736465136062,1756823030.783675
-1.2203395259999998,1.2849457362,10.4949199236,-0.14416419621473162,-0.2040289895581371,0.36285396894291366,1756823030.791715
-0.8709874264,1.363908882,10.8729858944,-0.08307767239493008,-0.3237585587916556,0.34086282036778504,1756823030.799628
-0.6053841178,1.3112667848,11.045269121599999,-0.11850785621041497,-0.38973202197033374,0.39706240482870997,1756823030.807627
-0.4163511324,1.1700902514,11.052447589399998,-0.028099800957108706,-0.4544837546726159,0.3249803241746367,1756823030.815704
-0.2440679052,1.0073783146,10.930413636799999,0.06230825429619756,-0.5131268000863328,0.34452799434368064,1756823030.823619
-0.22013967919999997,0.9451649269999999,10.731809361,0.12950343049797924,-0.5241223918271897,0.3274237676741362,1756823030.831677
-0.31106693799999996,0.8542376682,10.5714902468,0.2565634000431664,-0.5131268000863328,0.3078760625985072,1756823030.839654
-0.4019941968,0.7657032319999999,10.394421374399998,0.33597588100890846,-0.44348816293175913,0.2858849140233787,1756823030.847630
-0.5718846014,0.8159525066,10.4159567778,0.40683623118658574,-0.36285396894291366,0.30298917559950816,1756823030.855674
-0.7034898444,0.9595218625999999,10.6313108118,0.4263839362622147,-0.30543261909900765,0.33841932450840795,1756823030.863835
-0.8805587167999999,1.1318050897999998,10.8729858944,0.4801400772236401,-0.23945917337362202,0.31154127148098787,1756823030.871644
-1.040877831,1.4380863825999999,10.928020814199998,0.5302310093025848,-0.19792033717615698,0.37018431689470477,1756823030.879639
-1.2107682356,1.8448662246,10.849057668399999,0.5473352708787143,-0.18936822384138474,0.40317105721069013,1756823030.887686
-1.3734801724,2.3545374384,10.5954184728,0.5827654197876142,-0.18448130193580065,0.4447098934081552,1756823030.895633
-1.5625131578,2.9288148623999994,10.2795658896,0.6157521426503069,-0.1942551457469689,0.5204571829447091,1756823030.903655
-1.7395820301999998,3.3882368015999997,9.9517491934,0.6817256232822776,-0.21746802479849348,0.5119050696099369,1756823030.911683
-1.9046867896,3.6179477711999994,9.647860723199999,0.8002334271328151,-0.2675589743307307,0.5766568023122189,1756823030.919654
-2.0410776778,3.7399817237999997,9.576076045199999,0.7745771394883759,-0.2724458962363148,0.6023130899566581,1756823030.927649
-1.986042758,4.043870194,9.7722874984,0.755029399506162,-0.2700024352835228,0.6646214140660257,1756823030.935636
-1.8975083218,4.127618985,10.1072826624,0.6658431445424218,-0.27611108766550296,0.718377520120866,1756823030.943638
-1.7611174335999997,4.1012979364,10.3274223416,0.460592372148011,-0.2675589743307307,0.7476990515543709,1756823030.951655
-1.8113667082,3.5198420446,10.425528068199998,0.26022859147235455,-0.17226399717184032,0.9199630312729187,1756823030.959617
-2.0099709839999997,3.2757741393999997,10.408778309999999,0.012217304763960306,-0.09651670763528643,1.012814547479017,1756823030.967668
-2.321037922,3.2303105100000002,10.719845248,-0.17837264955382048,-0.10629055144645466,1.112996463996784,1756823030.975638
-2.5148565526,2.931207685,10.930413636799999,-0.33597588100890846,-0.11484266478122689,1.1068877767082188,1756823030.983701
-2.6009981662,2.5220350204,10.729416538399999,-0.460592372148011,-0.1392772743091475,1.116661655425972,1756823030.991654
-2.51246373,1.9357934833999997,10.3633146806,-0.4544837546726159,-0.24678955623199822,1.1887437709866304,1756823030.999628
-2.2683958248,1.3256237203999999,10.1168539528,-0.5277875658030853,-0.377514699753081,1.2473868338536398,1756823031.007655
-1.9477575963999998,0.7441678285999999,9.9565348386,-0.5009095127756651,-0.5363396791378575,1.274264921787645,1756823031.015669
-1.4835500119999998,0.3565305674,9.7770731436,-0.5595525756426746,-0.7110471721690749,1.341460080536134,1756823031.023630
-1.1054840412,0.0047856452,9.5856473356,-0.6218608299388722,-0.8393288372840731,1.3475686980115293,1756823031.031662
-0.7657032319999999,-0.39481572899999995,9.355936366,-0.7024950239277177,-0.9615018849236762,1.376890229445034,1756823031.039681
-0.6173482307999999,-0.8757730715999998,9.0592263636,-0.7672467217234148,-1.0299187566952688,1.4123203958072266,1756823031.047629
-0.6340979889999999,-1.4452648504,8.817551281,-0.7904596356815243,-1.0360274614371265,1.415985569783122,1756823031.055647
-0.6987041992,-2.0434705004,8.5136628108,-0.8038986709218807,-0.9871582423812854,1.390329351951853,1756823031.063615
-0.6795616184,-2.7254249414,8.434699665,-0.7867944617056288,-0.8710938296703699,1.2510520078295355,1756823031.071654
-0.7465606511999999,-3.5270205123999996,8.673981925,-0.6621779007533561,-0.7684684521998107,1.1716394745039158,1756823031.079627
-0.7465606511999999,-4.1324046302,8.9802632178,-0.5998696464571586,-0.5888741245294717,1.0934488112810326,1756823031.087653
-0.9236295236,-4.3166519704,9.028119669799999,-0.4776966337241405,-0.4117231705454623,0.9712757636414294,1756823031.095615
-1.1413763802,-4.3142591478,9.049655073199999,-0.43493604959698695,-0.2565634000431664,0.9236282052488142,1756823031.103630
-1.351944769,-4.3645084224,8.9204426528,-0.37995817815916555,-0.1282817000215832,0.8258898020437168,1756823031.111620
-1.6127624323999998,-4.5296131818,8.8343010392,-0.30909779307490326,-0.01832595714594046,0.7586946432952276,1756823031.119634
-1.9094724347999998,-4.761716974,8.8917287816,-0.23823744289722598,0.023212879051524585,0.73792519028991,1756823031.127626
-2.0626130812,-4.929214556,9.1429751546,-0.21746802479849348,0.048869219055841226,0.6511823613723768,1756823031.135613
-2.1391834043999998,-5.0560341538,9.4612205604,-0.16126842288427606,0.02199114857512855,0.5729916283363234,1756823031.143666
-2.1248264688,-5.180460929,9.901499918799999,-0.13316862192716733,-0.0439822971502571,0.5045746867515607,1756823031.151612
-2.0386848551999996,-5.230710203599999,10.313065405999998,-0.04276056667386108,-0.14538592669112765,0.4386012235728825,1756823031.159618
-1.9334006607999998,-5.192425041999999,10.683952909,-0.003665191429188092,-0.23945917337362202,0.4422664324553631,1756823031.167645
-1.7276179172,-5.075176734599999,10.796415571199999,0.11606439525762292,-0.3616322035599326,0.38973202197033374,1756823031.175618
-1.3902299305999999,-4.6564327796,10.7940227486,0.22479840765686965,-0.5204571829447091,0.34819320322616126,1756823031.183646
-1.0719845248,-3.9338003543999998,10.724630893199999,0.23335052099164186,-0.6829473537586737,0.2822197400474831,1756823031.191638
-0.6293123438,-3.302095188,10.6073825858,0.26511551337793865,-0.8491027160018264,0.2272418686096617,1756823031.199601
-0.16271193679999998,-2.5507488916,10.502098391399999,0.20525072003453315,-0.9676105198523638,0.2858849140233787,1756823031.207630
0.2536391956,-1.7850456595999997,10.533205085199999,0.18448130193580065,-0.9969320512858685,0.2822197400474831,1756823031.215634
0.6723831506,-1.1581261384,10.636096457,0.08552113334772216,-0.9969320512858685,0.3176499413162605,1756823031.223641
1.0624132344,-0.5479563754,10.657631860399999,0.05619960191421741,-0.9236282052488142,0.39584067435231396,1756823031.231644
1.3016954943999999,-0.0167497582,10.707881135000001,0.02076941809873252,-0.801455157609211,0.40683623118658574,1756823031.239617
1.4691930763999999,0.2895315346,10.7868442808,-0.023212879051524585,-0.6475171175833112,0.5045746867515607,1756823031.247657
1.5505490447999999,0.5407779076,10.980662911399998,-0.08307767239493008,-0.4630358680073881,0.5338962181850654,1756823031.255680
1.5529418674,0.8015955709999999,11.138589203,-0.09896016858807849,-0.2565634000431664,0.6218608299388722,1756823031.263627
1.4165509792,1.0265208954,11.102696864,-0.07696902001294993,-0.0916297857297023,0.6841690842350697,1756823031.271674
1.1413763802,1.2227323486,11.018948073,-0.04520402762665313,0.05131268000863329,0.7880161921820248,1756823031.279635
0.9044869427999999,1.5098710605999999,11.0380906538,0.026878070480712675,0.16126842288427606,0.7904596356815243,1756823031.287654
0.562313311,1.6677973521999998,11.040483476399999,0.11484266478122689,0.2272418686096617,0.860098237929513,1756823031.295675
0.2703889538,1.6247265453999997,11.138589203,0.20280725908174108,0.21624629432209744,0.8429940112599686,1756823031.303620
0.08135596839999999,1.5840485612,11.207981058399998,0.2724458962363148,0.16982053621904827,0.8784242474353311,1756823031.311675
-0.035892338999999995,1.5529418674,11.040483476399999,0.3665191429188092,0.058643062867009474,0.8271115150668203,1756823031.319683
-0.1722832272,1.4835500119999998,10.5714902468,0.43493604959698695,-0.07696902001294993,0.8820894214112266,1756823031.327643
-0.12442677519999999,1.4093725114,9.9110712092,0.5534438883541094,-0.33597588100890846,0.9028588220566666,1756823031.335653
-0.0646062102,1.2538390423999999,9.33200814,0.6328563518665589,-0.5986479159807625,0.9126326833211273,1756823031.343634
0.0765703232,1.1988041226,8.872586200799999,0.7061601979036133,-0.8576547769767211,0.9162978572970231,1756823031.351645
0.4211367776,1.1174481541999999,8.7050886188,0.8173377236155296,-1.1239920731909332,0.8075638448977763,1756823031.359651
0.8805587167999999,1.0743773474,8.7840517646,0.8442157417363647,-1.341460080536134,0.7513642255302664,1756823031.368126
1.3256237203999999,1.0145567824,8.956334991799999,0.8368853937845735,-1.47585038057982,0.7220426940967616,1756823031.375639
1.8329021115999997,1.088734283,9.260223461999999,0.8002334271328151,-1.4966198335851375,0.7159340591680741,1756823031.383634
2.2947168734,1.1318050897999998,9.2386880586,0.7122688851921785,-1.4795155545557157,0.7415904340789756,1756823031.391665
2.7182464736,1.1868400096,8.604590069599999,0.6719517620178169,-1.4489722926458148,0.6475171175833112,1756823031.399660
3.1010980895999998,1.2969098492,7.8987074026,0.6096435077216193,-1.4404202142176277,0.7098253718795088,1756823031.407632
3.5581272061999996,1.3495519463999999,7.601997400199999,0.6316346388434554,-1.4379767532648355,0.6976081194754261,1756823031.415644
3.9098721283999995,1.495514125,7.4129644148,0.6096435077216193,-1.4306464053130443,0.6853907972581733,1756823031.423650
4.3334017286,1.3304093656,7.3268228012,0.5742133588127195,-1.390329351951853,0.6572909963010645,1756823031.431660
4.5966122145999995,1.2227323486,7.477570624999999,0.5693263845472578,-1.3475686980115293,0.6939428756863605,1756823031.439678
4.713860522,1.2155538808,7.920242806,0.4495968153137393,-1.229060824347822,0.7159340591680741,1756823031.447620
4.814359071199999,1.1270194446,8.449056600599999,0.2834414705238791,-1.018923234767582,0.6841690842350697,1756823031.455627
4.7066820542,1.136590735,9.0711904766,0.16859880574265224,-0.7049384674272172,0.6633996137764597,1756823031.463656
4.2544385828,0.9308079913999999,9.930213789999998,0.13316862192716733,-0.24434609527920614,0.5986479159807625,1756823031.471693
4.711467699399999,0.7106683122,10.497312746199999,0.09896016858807849,0.20036379812894903,0.5461135404023182,1756823031.479629
4.0342989036,0.2081755662,11.353943237,0.1551597705022959,0.6267477343911637,0.5766568023122189,1756823031.487643
3.4887353508,-0.2967100024,11.846864692599999,0.1881464933649887,1.0470230531779834,0.5216788959678126,1756823031.495695
2.6488546182,-1.0217352502,11.7104738044,0.21746802479849348,1.4318681357894405,0.39706240482870997,1756823031.503652
2.0267207421999998,-1.5744772707999999,11.294122672,0.28099800957108706,1.728748676460261,0.36041049053682905,1756823031.511631
1.2538390423999999,-2.0865413072,11.0021983148,0.3530801076784529,1.9376644832042271,0.3335324375094089,1756823031.519632
0.5312066172,-2.3736800192,11.045269121599999,0.37629296927668493,2.031737852059769,0.31154127148098787,1756823031.527626
-0.0885344362,-2.380858487,11.3371934788,0.33108894165003183,2.036624739058768,0.3249803241746367,1756823031.535624
-0.6867400862,-2.1559331626,11.638689126400001,0.2675589743307307,1.9120082479196656,0.30543261909900765,1756823031.543626
-1.3375878333999998,-1.8759729183999998,11.672188642799998,0.19181168479417682,1.7153095714067346,0.3347541505325124,1756823031.551651
-1.9070796122,-1.746760498,11.392228398599999,0.10262536001726658,1.4709634761275285,0.3152064454568834,1756823031.559626
-2.1655044529999996,-1.938186306,11.1433748482,0.05009094953223726,1.089783567491967,0.35430182070155636,1756823031.567650
-2.2923240507999996,-2.356930261,11.0261265408,0.023212879051524585,0.6939428756863605,0.4141666314982544,1756823031.575675
-2.3473589705999998,-2.5986053435999996,11.0476619442,-0.025656340004316644,0.3176499413162605,0.4532619892896349,1756823031.583633
-2.3042881638,-2.4981067944,11.0213408956,-0.05253441048502932,-0.1356120828799594,0.48136180770003606,1756823031.591675
-2.1008982428,-2.1535403399999997,10.980662911399998,0.003665191429188092,-0.49968774739268407,0.4691444854827833,1756823031.599608
-1.7156538041999998,-2.021935097,11.150553316,0.009773843811168246,-0.8918632128625174,0.5326744877086693,1756823031.607662
-1.1270194446,-2.1080767106,11.2606231556,0.023212879051524585,-1.1801916925584433,0.537561392160961,1756823031.615626
-0.45702911659999995,-2.1750757434,11.3467647692,0.04642575810304917,-1.3805554034209295,0.558330827712986,1756823031.623686
0.1052841944,-1.8855442087999998,11.4544417862,0.14782938764391973,-1.4868460246805546,0.5791002458117185,1756823031.631612
0.5838487144,-1.3016954943999999,11.368300172599998,0.17348572764823636,-1.5528194529526476,0.5619960365954666,1756823031.639654
1.0049854919999999,-0.5910271822,11.1888384776,0.16493361431346412,-1.5088370859892202,0.5827654197876142,1756823031.647631
1.3328021881999998,-0.09092725880000001,10.7988083938,0.12583823906879116,-1.3744467859455345,0.6291911778906633,1756823031.655647
1.6079767872,0.2009970984,10.3082797608,0.10506882097005864,-1.197295831961525,0.5986479159807625,1756823031.663653
1.9046867896,0.346959277,9.7818587888,0.09529497715889039,-0.9773843811168246,0.5632177496185702,1756823031.671651
2.0267207421999998,0.49531427819999996,9.0951187026,0.13805554383275148,-0.77335540901198,0.575435071835823,1756823031.679718
2.1248264688,0.5192425042,8.638089586,0.14538592669112765,-0.5424483315198376,0.5693263845472578,1756823031.687635
2.0554346134,0.4163511324,8.329415470599999,0.2272418686096617,-0.2858849140233787,0.5827654197876142,1756823031.695638
1.8951154991999999,0.2727817764,8.1786676468,0.2797762965479835,-0.05619960191421741,0.5412266010434417,1756823031.703671
1.6319050132,0.0167497582,8.1164542592,0.30298917559950816,0.21258110289290932,0.5204571829447091,1756823031.711630
1.2346964615999998,-0.1722832272,7.896314579999999,0.33719761148530447,0.4361577800733829,0.498466016916288,1756823031.719655
0.7585247641999999,-0.203389921,7.781459095199999,0.3335324375094089,0.6267477343911637,0.4630358680073881,1756823031.727663
0.1387837108,0.0263210486,7.9585279676,0.36041049053682905,0.7782423134642716,0.4935791299172889,1756823031.735623
-0.5551348432,0.32303105099999996,8.470592003999998,0.40805796166298175,0.9089675093452318,0.4789183642005365,1756823031.743638
-1.2538390423999999,0.7369893607999999,9.020941202,0.39828413530510604,0.9627236154000721,0.455705485149012,1756823031.751628
-1.9764714676,1.1892328321999999,9.126225396399999,0.4288273972150068,0.9395107712551326,0.33597588100890846,1756823031.759659
-2.6512474407999997,1.4380863825999999,8.841479507,0.40561451816348215,0.8344419328317815,0.32131511529215606,1756823031.767898
-3.2781669620000002,1.4931213023999999,8.434699665,0.3726277953007894,0.6560692658246685,0.2345722514680379,1756823031.775692
-3.7256247882,1.495514125,8.2002030502,0.3225368457685521,0.4508185457901353,0.21013764194011728,1756823031.783681
-3.9385859995999994,1.43569356,8.4562350684,0.1881464933649887,0.22846359908605773,0.14905111812031574,1756823031.791652
-3.9553357578,1.3806586401999998,9.6239324972,0.08552113334772216,-0.03787364476827695,0.09407324668249435,1756823031.799660
-3.8739797894,1.2346964615999998,10.741380651399998,-0.10140362954087054,-0.3249803241746367,0.0879645943005142,1756823031.807650
-3.6945180944,1.0815558152,11.289337026799998,-0.21624629432209744,-0.6181955861498065,-0.019547687622336492,1756823031.815663
-3.1728827676,1.040877831,11.2630159782,-0.3005456797401311,-0.9896017033340774,-0.02076941809873252,1756823031.823636
-2.3353948576,1.0049854919999999,10.920842346399999,-0.37629296927668493,-1.415985569783122,-0.030543261909900768,1756823031.831697
-1.2897313813999998,0.7872386353999999,10.6695959734,-0.3995058483282095,-1.8643607069803427,0.02076941809873252,1756823031.839635
-0.07178467799999999,0.5264209719999999,10.542776375599999,-0.4654793115068877,-2.2492057197786295,0.1356120828799594,1756823031.847647
1.0767701699999999,0.2799602442,10.600204118,-0.460592372148011,-2.6071729238955923,0.1624901533606721,1756823031.855652
2.0985054202,0.0095712904,10.585847182399998,-0.4520402762665313,-2.8759535239829637,0.28955012290585924,1756823031.863628
2.9024938138,-0.2081755662,10.2723874218,-0.38117990863556156,-3.0372220341337024,0.3249803241746367,1756823031.871648
3.5270205123999996,-0.32542387359999997,9.774680320999998,-0.2541199390903744,-3.06409999989466,0.32131511529215606,1756823031.879729
4.1539400336,-0.45224347139999993,9.4612205604,-0.15760323145508795,-2.982244005616248,0.3152064454568834,1756823031.887635
4.5391844722,-0.39481572899999995,9.4325066892,-0.09773843811168245,-2.806314782108635,0.2919935838586513,1756823031.895654
5.000999233999999,-0.5288137946,9.6526463684,-0.06230825429619756,-2.4911083715583366,0.20525072003453315,1756823031.903665
5.3982077855999995,-0.5766702466,9.643075077999999,-0.08552113334772216,-2.0732766358973564,0.16859880574265224,1756823031.911663
5.9653067418,-0.6915257314,9.5330052384,-0.04642575810304917,-1.6175711507483448,0.11362093430483085,1756823031.919634
5.972485209599999,-0.5312066172,9.296115801,-0.08552113334772216,-1.1349875951186201,0.12095131716320703,1756823031.927644
6.1375899689999995,-0.5192425042,9.245866526399999,-0.03298672286269283,-0.7220426940967616,0.14294246573833558,1756823031.935652
6.173482308,-0.6053841178,9.535398060999999,-0.01710422666954443,-0.35430182070155636,0.14538592669112765,1756823031.943627
6.1208402108,-1.0121639597999998,10.078568791199999,-0.009773843811168246,-0.003665191429188092,0.11362093430483085,1756823031.951644
5.907878999399999,-1.4668002538,10.552347666000001,0.06719517620178168,0.28099800957108706,0.08063421144213803,1756823031.959646
5.422136011599999,-1.7108681589999999,10.894521297799999,0.10262536001726658,0.5436700619962336,0.08918632477691024,1756823031.967631
5.0512485086,-1.8735800958,10.88734283,0.12461650859239512,0.6927211626632569,-0.0012217304763960308,1756823031.975693
4.6013978598,-2.0291135648,10.5547404886,0.1392772743091475,0.7476990515543709,-0.039095375244672985,1756823031.983649
4.2257247116,-2.1439690496,10.0881400816,0.13805554383275148,0.718377520120866,-0.023212879051524585,1756823031.991644
3.8428730955999995,-2.1702900981999997,9.7842516114,0.15271630954950383,0.6365215956556246,0.039095375244672985,1756823031.999613
3.5629128513999997,-2.1607188078,9.6933243526,0.1282817000215832,0.5119050696099369,0.10018189906447451,1756823032.007709
3.3714870433999997,-2.0985054202,9.702895643,0.1282817000215832,0.32131511529215606,0.21135937241651329,1756823032.015627
3.3714870433999997,-2.2037896146,9.848857821600001,0.14538592669112765,0.10506882097005864,0.2700024352835228,1756823032.023640
3.3690942208,-2.3784656643999997,10.001998467999998,0.12095131716320703,-0.06963863715457375,0.28955012290585924,1756823032.031645
3.4025937371999997,-2.5220350204,9.978070242,0.15271630954950383,-0.28710667940635975,0.3347541505325124,1756823032.039618
3.4863425282,-2.5770699402,9.8201439504,0.11484266478122689,-0.48380525119953566,0.3933972308528144,1756823032.047668
3.5844482548,-2.6608187312,9.451649269999999,0.0879645943005142,-0.6682865880419212,0.45814892864851153,1756823032.055625
3.6562329327999996,-2.8283163131999998,8.925228298,0.05009094953223726,-0.8417722982368651,0.4691444854827833,1756823032.063644
3.7591243046,-3.1776684127999997,8.243273857,0.03420845333908886,-1.018923234767582,0.498466016916288,1756823032.071654
3.8572300312,-3.5078779316,7.566105061199999,0.09285151620609834,-1.160643952576229,0.4544837546726159,1756823032.079620
4.1012979364,-3.6849468039999995,7.054041024799999,0.158824961931484,-1.2657127211864103,0.43371431912059094,1756823032.087626
4.5152562462,-3.7782668854,6.7549381998,0.2700024352835228,-1.2877039046681238,0.3750712562535814,1756823032.095645
4.8215375389999995,-3.4959138186,6.4917277138,0.4141666314982544,-1.2327259983237175,0.3262020546510327,1756823032.103635
5.230710203599999,-3.218346397,6.4869420685999994,0.5705481150236538,-1.1777482316056511,0.2858849140233787,1756823032.111618
5.8193445632000005,-2.7684957482,6.824330055199999,0.7220426940967616,-1.0873401065391748,0.20525072003453315,1756823032.120079
6.412764567999999,-2.4071795355999996,7.410571592199999,0.8038986709218807,-0.9822712855691161,0.22113321622768156,1756823032.127616
7.0516482022,-1.8281164663999998,8.063812162,0.8710938296703699,-0.9004153611038747,0.22357667718047364,1756823032.135618
7.573283528999999,-1.2969098492,8.566304908,0.8930849433389134,-0.8002334271328151,0.21746802479849348,1756823032.143662
7.9011002251999995,-0.7609175867999999,8.817551281,0.8735372731698694,-0.6841690842350697,0.21380283336930536,1756823032.151617
8.1667035338,-0.1579262916,8.7290168448,0.9187413007965226,-0.5461135404023182,0.2431243648028101,1756823032.159620
8.181060469399998,0.2823530668,8.5016986978,0.8735372731698694,-0.3494149162492648,0.31154127148098787,1756823032.167624
8.0374911134,0.6388836341999999,8.2145599858,0.8124507493500679,-0.14294246573833558,0.3640756994193097,1756823032.175633
7.8747791766,0.8829515394,7.692924659,0.7415904340789756,0.11850785621041497,0.41905355340383854,1756823032.183618
7.6546394974,0.9858429112,7.077969250799999,0.6731734924942129,0.37018431689470477,0.44837510229063576,1756823032.191645
7.446463931199999,1.2466605746,6.8099731196,0.6072000642221197,0.6206390994624761,0.4740314248416599,1756823032.199630
7.29810893,1.7491533205999998,7.3531438497999995,0.498466016916288,0.8576547769767211,0.555887366760194,1756823032.207634
6.984649169399999,2.4933211492,8.556733617599999,0.39706240482870997,1.0910052805150705,0.5717698280467574,1756823032.215604
6.496513359,3.1896325257999996,9.848857821600001,0.20036379812894903,1.3817771338973257,0.5595525756426746,1756823032.223597
5.8145589179999995,3.6442688197999997,10.6863457316,0.028099800957108706,1.6371188907305587,0.5045746867515607,1756823032.231603
5.0177489922,3.7758740628,10.6815600864,-0.20769418098732523,1.87291278540853,0.37384952577718544,1756823032.239665
4.3286160834,3.5365918028,10.2269237924,-0.3665191429188092,2.0170770165298464,0.2797762965479835,1756823032.247650
3.6634114006,3.0508488149999997,9.7363951594,-0.5277875658030853,2.0659462879455655,0.2700024352835228,1756823032.255645
2.9599215562,2.4215364712,9.5688975774,-0.6414085001079161,2.024407364481638,0.22968532956245377,1756823032.263623
2.4430718746,1.5481562222,9.4181497536,-0.6743952055173165,1.9486601447582539,0.17226399717184032,1756823032.271680
2.0386848551999996,0.7274180704000001,9.3344009626,-0.6365215956556246,1.806939357136437,0.1759291886010284,1756823032.279658
1.7419748528,0.062213387599999996,9.2793660428,-0.5436700619962336,1.6420057951828502,0.19669860669976094,1756823032.287661
1.4931213023999999,-0.38285161599999995,9.248259349,-0.37140608227768585,1.415985569783122,0.2565634000431664,1756823032.295635
1.2897313813999998,-0.6747759731999999,9.006584266399999,-0.22113321622768156,1.192408944962526,0.2700024352835228,1756823032.303659
1.2729816232,-0.7920242806,8.8199441036,-0.0916297857297023,1.0152579909785164,0.33231070703301285,1756823032.311645
1.339980656,-0.873380249,8.7361953126,0.06841690667817772,0.801455157609211,0.37995817815916555,1756823032.319635
1.4907284798,-0.9284151688,8.965906282199999,0.1111774733520388,0.6438519436074157,0.43004911023811027,1756823032.327631
1.6654045296,-1.0217352502,9.367900479,0.18081611050661253,0.5485569839018177,0.455705485149012,1756823032.335662
1.8281164663999998,-1.2729816232,9.9158568544,0.15638150097869194,0.4630358680073881,0.5241223918271897,1756823032.343651
2.0841484845999996,-1.5888342063999998,10.432706535999998,0.1551597705022959,0.44104470197896706,0.5729916283363234,1756823032.351631
2.1104695332,-1.9884355805999998,10.8658074266,0.13194689145077132,0.4654793115068877,0.5937610115284709,1756823032.359653
2.1008982428,-2.4263221163999997,10.9016997656,0.12461650859239512,0.558330827712986,0.596204472481263,1756823032.367652
2.0003996936,-2.8019952645999995,10.729416538399999,0.11850785621041497,0.6572909963010645,0.6670648575655254,1756823032.375677
1.8472590472,-2.835494781,10.3992070196,0.1551597705022959,0.7843509483929592,0.6475171175833112,1756823032.383627
1.5601203352,-2.715853651,10.1288180658,0.20525072003453315,0.877202447145765,0.6377433261320204,1756823032.391710
1.3184452526,-2.5651058272,10.061819032999999,0.23335052099164186,0.9260717185614837,0.634078152156125,1756823032.399630
1.1389835575999998,-2.4119651807999998,10.080961613800001,0.24190263432641407,0.9822712855691161,0.6206390994624761,1756823032.407629
0.95712904,-2.177468566,10.080961613800001,0.2748893571891069,1.0005972950749342,0.6462954045602076,1756823032.415694
0.6891329088,-1.9070796122,10.186245808199999,0.2541199390903744,1.0054841995272257,0.6511823613723768,1756823032.423648
0.5264209719999999,-1.5146567058,10.2580304862,0.22357667718047364,0.990823416357181,0.6181955861498065,1756823032.431648
0.2943171798,-1.1054840412,10.372885970999999,0.21135937241651329,0.9566149804713845,0.5656612105713621,1756823032.439625
0.1746760498,-0.7704888771999999,10.3082797608,0.1111774733520388,0.9126326833211273,0.5803219762881145,1756823032.447786
0.0191425808,-0.4474578262,10.200602743800001,0.06963863715457375,0.8894197693630179,0.5424483315198376,1756823032.455631
-0.1962114532,-0.19381863059999999,9.877571692799998,-0.01710422666954443,0.8344419328317815,0.555887366760194,1756823032.463672
-0.3278166962,-0.045463629400000004,9.365507656399998,-0.06841690667817772,0.8112290363269643,0.5131268000863328,1756823032.471868
-0.4761716974,0.11246266220000001,8.9682991048,-0.10262536001726658,0.7660249912470187,0.49724430389318447,1756823032.479651
-0.6388836341999999,0.22971096959999998,8.7768732968,-0.12950343049797924,0.7415904340789756,0.4715879638888678,1756823032.487632
-0.8470592003999999,0.2656033086,8.712267086599999,-0.15027284859671178,0.7452556080548712,0.4520402762665313,1756823032.495647
-1.0576275892,0.30867411539999995,8.650053698999999,-0.18448130193580065,0.7318165553612224,0.39584067435231396,1756823032.503763
-1.2705888006000001,0.3493520996,8.6117685374,-0.17226399717184032,0.7073819283800092,0.34452799434368064,1756823032.511649
-1.4739787215999998,0.3158525832,8.7361953126,-0.18448130193580065,0.6658431445424218,0.30421088862261164,1756823032.519724
-1.6797614652,0.22731814699999997,9.056833541,-0.16493361431346412,0.6255260039147678,0.22357667718047364,1756823032.527619
-1.8520446923999998,0.0861416136,9.705288465599999,-0.10262536001726658,0.55710909723659,0.18570303241219668,1756823032.535652
-2.0913269523999998,0.007178467799999999,10.4470634716,-0.05009094953223726,0.5082398956340413,0.06719517620178168,1756823032.543656
-2.3545374384,-0.031106693799999998,10.7748801678,-0.007330382858376184,0.4398229889558636,0.013439035240356337,1756823032.551640
-2.6081766339999994,-0.09571290399999999,10.7102739576,0.04642575810304917,0.35674531656093345,-0.12095131716320703,1756823032.559625
-2.8594230069999997,-0.14356935599999998,10.2987084704,0.09040805525330627,0.2223549467040776,-0.16004669240788003,1756823032.567662
-3.0604201054,-0.334995164,9.4803631412,0.18081611050661253,0.0439822971502571,-0.21380283336930536,1756823032.575664
-3.1633114772,-0.5216353268,8.626125472999998,0.2834414705238791,-0.12217304763960307,-0.24556782575560218,1756823032.583630
-3.2015966387999995,-0.5862415369999999,8.2959159542,0.3750712562535814,-0.33231070703301285,-0.2822197400474831,1756823032.591644
-3.1298119607999997,-0.6077769404,8.4394853102,0.4544837546726159,-0.5363396791378575,-0.3078760625985072,1756823032.599696
-2.979064137,-0.49531427819999996,9.0783689444,0.4642575810304917,-0.7159340591680741,-0.31398473243377983,1756823032.607632
-2.7182464736,-0.18664016279999998,9.9732845968,0.4642575810304917,-0.8662069252180783,-0.3506366467256608,1756823032.615719
-2.4789642136,0.22971096959999998,10.975877266199998,0.36529741244241315,-1.0018190255513302,-0.35552358608453744,1756823032.623741
-2.1320049365999996,0.7345965381999999,11.8181508214,0.26633724385433466,-1.11421819447318,-0.4728096943652639,1756823032.631618
-1.5649059803999998,1.1533404932,12.1890383244,0.11972958668681101,-1.2424999294013483,-0.4899139210348083,1756823032.639617
-0.8111668613999999,1.3686945272,11.909078080199999,-0.024434609527920613,-1.4391984837412315,-0.4960225734167885,1756823032.647696
0.031106693799999998,1.3591232368,11.272587268599999,-0.12461650859239512,-1.654223047586933,-0.4471533718142397,1756823032.655630
0.9643075078,1.2897313813999998,10.662417505599999,-0.20158552860534507,-1.8545868980757596,-0.3860668479944382,1756823032.663649
1.7802600144,1.1557333157999998,10.2604233088,-0.24801128670839426,-2.0476202784397475,-0.24190263432641407,1756823032.671780
2.63210486,1.0145567824,10.0905329042,-0.2431243648028101,-2.1502455860971366,-0.19914206765255302,1756823032.679682
3.4887353508,0.8279166196,10.229316614999998,-0.2590068609959585,-2.19300624003746,-0.059864793343405505,1756823032.687656
4.2496529376,0.5910271822,10.4542419394,-0.24923301718479024,-2.096489549855466,0.09407324668249435,1756823032.695673
4.845465764999999,0.38763726119999997,10.784451458199998,-0.23335052099164186,-1.87291278540853,0.1942551457469689,1756823032.703629
5.3192446398,0.46899322959999995,10.734202183599999,-0.24678955623199822,-1.6114625332729493,0.30909779307490326,1756823032.711651
5.5776694806,0.7609175867999999,10.389635729199998,-0.26633724385433466,-1.314581992602129,0.39584067435231396,1756823032.719655
5.565705367600001,1.0791629926,9.8321080634,-0.3530801076784529,-0.9443976757074242,0.5167920089688135,1756823032.727706
5.3336015754,1.2801600909999997,9.267401929799998,-0.4288273972150068,-0.558330827712986,0.5913175680289714,1756823032.735623
4.977071007999999,1.2849457362,8.805587168,-0.5106833391335408,-0.14538592669112765,0.6377433261320204,1756823032.743614
4.5391844722,1.1054840412,8.2983087768,-0.5412266010434417,0.2907718533822553,0.596204472481263,1756823032.751745
4.007977855,0.7776673449999999,7.9058858704,-0.5497787143782138,0.6438519436074157,0.6059783337457239,1756823032.759630
3.3714870433999997,0.38045879339999994,7.7623165144,-0.5436700619962336,0.9162978572970231,0.5986479159807625,1756823032.767628
2.8522445392,-0.0023928226,7.8819576444,-0.5534438883541094,1.1496484306485424,0.575435071835823,1756823032.775685
2.3784656643999997,-0.418743955,8.0590265168,-0.537561392160961,1.2815952697394364,0.5021312257987686,1756823032.783689
2.0003996936,-0.8279166196,8.4658063588,-0.49724430389318447,1.3048081836975458,0.49724430389318447,1756823032.791636
1.698904046,-1.1222337993999998,9.193224429199999,-0.49235736453430784,1.2644909907100141,0.5363396791378575,1756823032.799648
1.4811571894,-1.351944769,10.150353469199999,-0.5045746867515607,1.1533136046244379,0.518013721991917,1756823032.807631
1.1820543644,-1.4931213023999999,10.894521297799999,-0.575435071835823,1.0372491744602301,0.5656612105713621,1756823032.815652
0.8470592003999999,-1.7156538041999998,10.9423777498,-0.6096435077216193,0.8527678899777219,0.5619960365954666,1756823032.823626
0.48574298779999997,-2.1367905817999997,10.741380651399998,-0.5803219762881145,0.6658431445424218,0.5412266010434417,1756823032.831613
0.275174599,-2.476571391,10.731809361,-0.5644394800949663,0.4422664324553631,0.5302310093025848,1756823032.839655
0.2321037922,-2.7254249414,10.7629160548,-0.5167920089688135,0.2516764781375823,0.4495968153137393,1756823032.847644
0.3206382284,-3.0101708308,10.7389878288,-0.4740314248416599,0.06841690667817772,0.44837510229063576,1756823032.855634
0.5359922624,-3.3714870433999997,10.497312746199999,-0.4288273972150068,-0.10995574287564276,0.3933972308528144,1756823032.863621
0.8087740388,-3.7256247882,10.097711372,-0.33597588100890846,-0.2272418686096617,0.40561451816348215,1756823032.871850
1.0336993632,-3.9744783385999995,9.8751788702,-0.20769418098732523,-0.318871654339364,0.39706240482870997,1756823032.879673
1.3447663012,-4.0462630166,9.7914300792,-0.08185594191853406,-0.36896258641830876,0.43249260609748735,1756823032.887676
1.6893327556,-4.259224228,9.9373922578,0.03298672286269283,-0.4007275788046055,0.4129449010218584,1756823032.895634
1.9453647737999997,-4.1108692268,10.0666046782,0.1551597705022959,-0.36896258641830876,0.4520402762665313,1756823032.903670
2.1032910653999997,-3.8117664017999995,10.193424275999998,0.31398473243377983,-0.3127630019573839,0.40317105721069013,1756823032.911653
2.1678972756,-3.2111679292,10.1072826624,0.460592372148011,-0.23701571242082994,0.37018431689470477,1756823032.919634
2.0793628394,-2.3353948576,9.8368937086,0.6108652381980153,-0.20158552860534507,0.43249260609748735,1756823032.927658
2.0554346134,-1.9836499354,9.803394192199999,0.6719517620178169,-0.2541199390903744,0.4092797270459628,1756823032.935631
2.0482561456,-1.6582260617999998,9.2410808812,0.6524040918487729,-0.33231070703301285,0.3872885784708342,1756823032.943657
2.0530417908,-1.2897313813999998,8.7409809578,0.6756169359937125,-0.4471533718142397,0.4043927876870862,1756823032.951664
2.1726829208,-0.9906285563999999,8.391628858199999,0.6866125277345693,-0.5876523242399058,0.3909537524467298,1756823032.959638
2.4430718746,-0.7250252477999999,8.3318082932,0.7086036414031127,-0.678060379493212,0.43004911023811027,1756823032.967675
2.739781877,-0.31345976059999997,8.449056600599999,0.719599250597262,-0.8051204013982768,0.4618141026244071,1756823032.975638
3.0699913958,0.11006983959999998,8.6309111182,0.6267477343911637,-0.9382889709655666,0.4850270165825167,1756823032.983630
3.3954152693999995,0.430708068,8.865407733,0.4935791299172889,-1.0519099401769825,0.4874704600820162,1756823032.991622
3.7519458367999996,0.5982056499999999,9.008977089,0.4544837546726159,-1.1374310386181197,0.4447098934081552,1756823032.999671
4.151547211,0.658026215,8.9228354754,0.37995817815916555,-1.1960741189384216,0.42394049276271517,1756823033.007628
4.54636294,0.7322037155999999,8.7433737804,0.34697143784318024,-1.189965484009734,0.3665191429188092,1756823033.015657
4.9005006848,0.8973084749999999,8.5351982142,0.32009338481576005,-1.1728612049803118,0.2797762965479835,1756823033.023662
5.2474599618,1.100698396,7.8388868376000005,0.23212879051524585,-1.089783567491967,0.16615534478986016,1756823033.031652
5.6662039168,1.3423734786,7.140182638399999,0.23212879051524585,-0.973719207140929,0.11850785621041497,1756823033.039620
6.2356956956,1.5122638832,7.1808606226,0.21013764194011728,-0.7867944617056288,0.11972958668681101,1756823033.047634
6.8697936846,1.8281164663999998,8.2289169214,0.1942551457469689,-0.5424483315198376,0.13316862192716733,1756823033.055689
7.247859655399999,2.2875384056,9.6358966102,0.09285151620609834,-0.20158552860534507,0.10384709049366261,1756823033.063637
7.2191457842,2.6895326024,10.315458228599999,0.01832595714594046,0.20036379812894903,0.13683381335635544,1756823033.071634
6.795616184,2.8977081686,10.4231352456,-0.048869219055841226,0.6707300315414209,0.040317105721069016,1756823033.079636
6.063412468399999,2.9048866363999997,10.1264252432,-0.18570303241219668,1.1056660462318226,0.05131268000863329,1756823033.087625
5.1780681064000005,2.739781877,9.8249295956,-0.2272418686096617,1.494176390085638,-0.003665191429188092,1756823033.095624
4.264009873199999,2.4071795355999996,9.690931529999999,-0.26878070480712674,1.8179350186904637,-0.006108652381980153,1756823033.103613
3.3690942208,1.8927226766,9.5545406418,-0.28099800957108706,2.1184805937108395,-0.023212879051524585,1756823033.111633
2.4023938904,1.4021940436,9.477970318599999,-0.21868975527488949,2.3176225915502227,-0.08918632477691024,1756823033.119613
1.5505490447999999,0.861416136,9.437292334399999,-0.1881464933649887,2.4605651096484356,0.009773843811168246,1756823033.127632
0.7848458128,0.2943171798,9.2075813648,-0.048869219055841226,2.475226067351406,0.0024434609527920616,1756823033.135619
-0.0861416136,-0.09092725880000001,8.3796647452,0.03665191429188092,2.4471262663942968,0.08674286382411818,1756823033.143656
-0.7369893607999999,-0.4929214556,7.7144600624,0.22968532956245377,2.3628268286163863,0.1466076571675237,1756823033.151615
-1.1772687192,-1.2035897677999998,8.118847081799998,0.3824016391119576,2.1856758746323766,0.2541199390903744,1756823033.159615
-1.5912270289999997,-1.746760498,9.056833541,0.5106833391335408,1.984090293667154,0.377514699753081,1756823033.167632
-2.021935097,-2.2061824372,10.121639597999998,0.6401867696315201,1.7519614507920305,0.5021312257987686,1756823033.175630
-2.3497517932,-2.8283163131999998,11.258230333,0.6817256232822776,1.5711453402854179,0.6768386664701084,1756823033.183622
-2.6033909887999998,-2.9455646206,11.983255580799998,0.6853907972581733,1.3219123405539202,0.801455157609211,1756823033.191694
-2.8546373618,-2.8761727651999998,12.452248810399999,0.6633996137764597,1.0616838188947357,0.8784242474353311,1756823033.199617
-3.0149564759999996,-2.7661029256,12.4498559878,0.6267477343911637,0.7672467217234148,0.9321803534901714,1756823033.207609
-3.0795626861999996,-2.6895326024,12.198609614799999,0.5839871502640102,0.4691444854827833,0.9773843811168246,1756823033.215663
-3.0029923629999997,-2.7086751832,11.8420790474,0.6157521426503069,0.11606439525762292,0.9749409376173249,1756823033.223611
-2.715853651,-2.9144579268,11.509476706,0.6328563518665589,-0.2345722514680379,0.9676105198523638,1756823033.231603
-2.3377876802,-3.3116664784,11.4568346088,0.6866125277345693,-0.5167920089688135,0.9272934490378798,1756823033.239628
-1.8089738855999997,-3.4337004309999997,11.6865455784,0.7672467217234148,-0.719599250597262,0.9883799728576813,1756823033.247660
-1.2945170266000001,-3.1609186545999997,11.5860470292,0.8869763258635183,-0.8454374722127607,1.0250318696962697,1756823033.255688
-0.8518448456,-2.428714939,11.4161566246,0.9407325017315287,-0.9077457090556658,0.9761626506404285,1756823033.263621
-0.32303105099999996,-1.5577275126,11.2558375104,0.972497476664533,-0.9639453458764682,0.9541714671587149,1756823033.271659
-0.057427742399999995,-0.4019941968,10.9447705724,0.955393267448281,-0.9859365293581818,0.8857545953871222,1756823033.279646
0.30149564759999997,0.3924229064,10.573883069399999,0.877202447145765,-0.9957103208094725,0.8405505677604691,1756823033.287650
0.550349198,0.9164510557999999,10.253244840999999,0.8271115150668203,-0.9834929985922196,0.7684684521998107,1756823033.295633
0.7465606511999999,1.2251251712,9.999605645399999,0.7525859560066623,-0.8747590036462655,0.6963864064523225,1756823033.303627
0.8662017812,1.627119368,9.499505721999999,0.6316346388434554,-0.7293731118617228,0.6218608299388722,1756823033.311667
0.9212367009999999,1.91425808,8.9802632178,0.5925392985053675,-0.5668829410477582,0.558330827712986,1756823033.319639
0.9858429112,1.9166509026,8.422735551999999,0.498466016916288,-0.417831840380735,0.5106833391335408,1756823033.327668
0.9116654106,1.8233308212,8.216952808399999,0.537561392160961,-0.2431243648028101,0.5045746867515607,1756823033.335653
0.7752745223999999,1.8233308212,8.4777704718,0.5485569839018177,-0.08552113334772216,0.5106833391335408,1756823033.343636
0.45224347139999993,2.0554346134,9.0113699116,0.6499606483492734,0.10873401239924674,0.4691444854827833,1756823033.351674
0.0430708068,2.3928225999999997,9.4133641084,0.7147123461449705,0.30909779307490326,0.4654793115068877,1756823033.359639
-0.3565305674,2.7732813933999996,9.4851487864,0.7562511997957281,0.455705485149012,0.42027528388023455,1756823033.367676
-0.7752745223999999,3.1106693799999996,9.2530449942,0.8038986709218807,0.5155702784924174,0.3506366467256608,1756823033.375693
-1.1461620253999998,3.3762726885999994,8.992227330799999,0.8503244290249299,0.537561392160961,0.3347541505325124,1756823033.383635
-1.6079767872,3.8572300312,9.463613383,0.8307766890427158,0.4715879638888678,0.2272418686096617,1756823033.391647
-2.0051853387999996,4.555934230399999,10.073783145999998,0.7244861375962612,0.35674531656093345,0.18936822384138474,1756823033.399740
-2.2660030021999997,5.1230331866,10.765308877399999,0.4129449010218584,0.2040289895581371,0.10262536001726658,1756823033.407631
-2.333002035,5.4412785924,11.691331223599999,0.058643062867009474,-0.007330382858376184,0.008552113334772215,1756823033.415628
-2.2683958248,5.204389154999999,12.141181872399999,-0.26389378290154264,-0.23335052099164186,-0.10018189906447451,1756823033.423670
-2.0961125976,4.606183505,11.712866626999999,-0.5082398956340413,-0.48136180770003606,-0.21991148575128552,1756823033.431619
-1.6342978357999998,3.6418759971999997,10.889735652599999,-0.5607743061190706,-0.8026769578987771,-0.2357939819444339,1756823033.439655
-0.95712904,2.9479574431999995,10.181460162999999,-0.5839871502640102,-1.1349875951186201,-0.28099800957108706,1756823033.447659
-0.179461695,2.3856441322,9.808179837399999,-0.5241223918271897,-1.4440853881935232,-0.26145032194875056,1756823033.455644
0.5838487144,2.2420747762,9.4444708022,-0.4728096943652639,-1.7263052329607615,-0.15393804002589986,1756823033.463630
1.399801221,2.1128623558,9.0975115252,-0.4129449010218584,-1.9596556666859408,-0.13805554383275148,1756823033.471631
2.1439690496,2.0410776778,8.8869431364,-0.2919935838586513,-2.17223676957885,-0.06719517620178168,1756823033.479768
2.7062823605999995,1.9094724347999998,9.0472622506,-0.23701571242082994,-2.267531729284448,-0.0012217304763960308,1756823033.487615
3.3690942208,1.6462619487999999,9.169296203199998,-0.1832595714594046,-2.2687535819338915,0.0439822971502571,1756823033.495633
4.0151563228,1.3016954943999999,8.934799588399999,-0.23945917337362202,-2.2479841289285742,0.10018189906447451,1756823033.503650
4.510470601,0.8853443619999999,8.836693861799999,-0.28710667940635975,-2.133141429240762,0.1759291886010284,1756823033.511635
5.0081777018,0.5742774239999999,8.961120637,-0.3530801076784529,-1.9376644832042271,0.23945917337362202,1756823033.519649
5.3814580274,0.4450650036,9.1812603162,-0.4386012235728825,-1.710422666954443,0.35430182070155636,1756823033.527683
5.790630692,0.3397808092,9.5784688678,-0.577878532788615,-1.3829988643737217,0.4422664324553631,1756823033.535632
6.1998033565999995,0.3302095188,10.0115697584,-0.6426302305843121,-0.9859365293581818,0.42394049276271517,1756823033.543651
6.453442552199999,0.057427742399999995,10.4422778264,-0.7330382858376184,-0.558330827712986,0.41661010990433894,1756823033.551666
6.4055861002,-0.5240281494,10.2676017766,-0.7244861375962612,-0.14538592669112765,0.32864549815053223,1756823033.559625
6.063412468399999,-1.2131610581999999,9.7770731436,-0.7843509483929592,0.20280725908174108,0.2431243648028101,1756823033.567650
5.606383351799999,-1.8879370314,9.458827737799998,-0.7745771394883759,0.5424483315198376,0.058643062867009474,1756823033.575860
5.3383872206,-2.656033086,9.353543543399999,-0.7403686337894095,0.7880161921820248,-0.06230825429619756,1756823033.583631
5.1852465742,-3.3762726885999994,9.2410808812,-0.71715578964447,0.9859365293581818,-0.13194689145077132,1756823033.591630
4.9962135888,-3.6227334164,9.1956172518,-0.5729916283363234,1.0836749325632793,-0.2736676267127109,1756823033.599661
4.8526442327999995,-3.6299118841999998,9.3487578982,-0.4459316064312587,1.0873401065391748,-0.2724458962363148,1756823033.607655
4.5966122145999995,-3.6705898684,9.559326287,-0.30298917559950816,1.0250318696962697,-0.31398473243377983,1756823033.615655
4.3118663252,-3.4528430117999998,9.810572659999998,-0.17226399717184032,0.9224064747724181,-0.24923301718479024,1756823033.623741
4.1324046302,-3.2781669620000002,10.1072826624,-0.1075122819228507,0.7562511997957281,-0.2516764781375823,1756823033.631631
3.9026936606,-3.0053851856,10.372885970999999,-0.06841690667817772,0.5510004448546099,-0.1356120828799594,1756823033.639686
3.6849468039999995,-2.8259234905999997,10.5116696818,-0.14538592669112765,0.3078760625985072,-0.08918632477691024,1756823033.647632
3.5318061576,-2.75174599,10.3393864546,-0.21135937241651329,0.048869219055841226,0.0,1756823033.655674
3.4002009145999996,-2.895315346,9.889535805799998,-0.2834414705238791,-0.19058995431778078,0.008552113334772215,1756823033.663638
3.4408788988,-3.1202406704,9.339186607799999,-0.2822197400474831,-0.4117231705454623,-0.06597344572538566,1756823033.671652
3.7160534977999995,-3.3690942208,8.8965144268,-0.17715091907742445,-0.5632177496185702,-0.0916297857297023,1756823033.679686
3.9577285803999995,-3.3954152693999995,8.520841278599999,-0.09285151620609834,-0.6414085001079161,-0.18203784098300857,1756823033.687647
4.223331889,-3.2853454297999996,8.2025958728,-0.023212879051524585,-0.6878342582109652,-0.2064724505109292,1756823033.695661
4.5032921331999995,-2.9982067178,7.948956677199999,0.019547687622336492,-0.6963864064523225,-0.29443706226473587,1756823033.703639
4.761716974,-2.5603201819999994,7.6139615132,0.08552113334772216,-0.6181955861498065,-0.378736465136062,1756823033.711622
4.998606411399999,-1.9310078382,7.2263242519999995,0.15393804002589986,-0.538783157543942,-0.4373794930964865,1756823033.719663
5.2737810104,-1.328016543,6.8889362654,0.1942551457469689,-0.4019493441875866,-0.4715879638888678,1756823033.727645
5.486742221799999,-0.7154539573999998,6.6855463444,0.2700024352835228,-0.23945917337362202,-0.519235452468313,1756823033.735660
5.7475598852,-0.0741775006,6.709474570399999,0.30298917559950816,-0.004886921905584123,-0.4935791299172889,1756823033.743613
5.9126646445999995,0.4259224228,7.0636123152,0.3127630019573839,0.2528982086139784,-0.4740314248416599,1756823033.751638
5.9892349678,0.6963113766,7.0875405412,0.3494149162492648,0.48624874705891274,-0.4361577800733829,1756823033.759646
5.7858450468,0.8781658942,6.7262243286,0.28710667940635975,0.6829473537586737,-0.40561451816348215,1756823033.767673
5.467599641,0.9882357338,6.3314085996,0.30421088862261164,0.8381071068076771,-0.3103195584578843,1756823033.775775
5.120640363999999,1.1581261384,6.1351971463999995,0.2712241657599188,0.9517280236592153,-0.22968532956245377,1756823033.783666
4.845465764999999,1.5481562222,6.6233329568,0.2431243648028101,1.0629055493711317,-0.16126842288427606,1756823033.791639
4.6013978598,2.129612114,8.061419339399999,0.12950343049797924,1.132544134165828,-0.1111774733520388,1756823033.799645
4.259224228,2.8450660714,9.4947200768,-0.035430183815484885,1.225395650371926,-0.07208209810736581,1756823033.807665
3.7567314819999997,3.4648071248,10.0235338714,-0.26267205242514663,1.3463469675351334,-0.07208209810736581,1756823033.815629
3.2518459134,3.6801611588,9.7818587888,-0.4935791299172889,1.4599679541998418,-0.05009094953223726,1756823033.823650
2.6871397797999994,3.5270205123999996,9.4827559638,-0.7049384674272172,1.551597739929544,-0.028099800957108706,1756823033.831648
2.081755662,3.1704899449999995,9.339186607799999,-0.896750187127979,1.6371188907305587,-0.040317105721069016,1756823033.839632
1.5146567058,2.5818555854,9.080761767,-1.0286970436721654,1.7250833628580253,-0.06963863715457375,1756823033.847654
0.9044869427999999,1.8424734019999998,8.626125472999998,-1.0519099401769825,1.8106045311123324,-0.0439822971502571,1756823033.855631
0.39481572899999995,1.0695917021999999,8.171489179,-0.992045146833577,1.8655824200034463,-0.004886921905584123,1756823033.863627
-0.023928225999999997,0.45942193919999996,8.1403824852,-0.8649851947416822,1.8985691428661393,-0.05253441048502932,1756823033.871669
-0.4139583098,0.275174599,8.956334991799999,-0.635299882632521,1.8460346974745248,-0.059864793343405505,1756823033.879690
-0.8327022648,0.3302095188,10.52841944,-0.5277875658030853,1.7470745463397388,-0.09529497715889039,1756823033.887623
-1.256231865,0.49531427819999996,12.107682356,-0.4471533718142397,1.6200146117011365,-0.1514945790731078,1756823033.895664
-1.5314064639999998,0.39960137419999997,12.9714913146,-0.359188760060433,1.4233160573612533,-0.2040289895581371,1756823033.903658
-1.8089738855999997,-0.1387837108,13.036097524799999,-0.26145032194875056,1.1801916925584433,-0.24923301718479024,1756823033.911654
-2.0195422744,-1.1772687192,12.681959779999998,-0.13072516097437528,0.896750187127979,-0.24923301718479024,1756823033.919655
-2.03389921,-1.9477575963999998,12.1220392916,0.07208209810736581,0.558330827712986,-0.17348572764823636,1756823033.927634
-2.1008982428,-2.2468604213999996,11.6219393682,0.24801128670839426,0.1270599695451872,-0.1514945790731078,1756823033.935757
-2.1176480009999996,-2.1535403399999997,11.387442753399998,0.359188760060433,-0.26389378290154264,-0.10506882097005864,1756823033.943628
-1.8927226766,-2.093719775,11.4161566246,0.3616322035599326,-0.5986479159807625,-0.13439035240356337,1756823033.951668
-1.6606188843999998,-2.0721843715999997,11.715259449599998,0.3824016391119576,-0.8869763258635183,-0.1356120828799594,1756823033.959621
-1.2801600909999997,-2.069791549,12.0981110656,0.2907718533822553,-1.0653489928706312,-0.19058995431778078,1756823033.967615
-0.7752745223999999,-2.1511475173999997,12.2010024374,0.1942551457469689,-1.1936306579856295,-0.28099800957108706,1756823033.975641
-0.334995164,-2.1391834043999998,12.141181872399999,0.11239920382843482,-1.2070697804924484,-0.359188760060433,1756823033.983697
0.09332008139999999,-2.225325018,11.9018996124,0.029321531433504737,-1.2144001284442394,-0.5033529562751646,1756823033.991613
0.48574298779999997,-2.3186450994,11.440084850599998,0.03298672286269283,-1.192408944962526,-0.5717698280467574,1756823033.999644
0.8925228297999999,-2.2707886474,10.889735652599999,-0.04642575810304917,-1.1630873960757286,-0.6487388480597073,1756823034.007630
1.2251251712,-2.1463618722,10.356136212800001,-0.059864793343405505,-1.1239920731909332,-0.6267477343911637,1756823034.015629
1.4500504955999998,-2.0506489682,9.925428144799998,-0.11239920382843482,-1.0531316706533784,-0.6108652381980153,1756823034.023611
1.5936198516,-1.9812571127999998,9.571290399999999,-0.13805554383275148,-0.9541714671587149,-0.6010913769335546,1756823034.031637
1.7204394494,-2.0769700168,9.200402897,-0.14782938764391973,-0.8283332455432163,-0.5607743061190706,1756823034.039631
1.7611174335999997,-2.1631116304,9.013762734199998,-0.17837264955382048,-0.6902777017104648,-0.5314527746855658,1756823034.047628
1.6319050132,-2.2779671151999996,8.7050886188,-0.12583823906879116,-0.4960225734167885,-0.4728096943652639,1756823034.055660
1.4572289634,-2.4574288101999997,8.1978102276,-0.10018189906447451,-0.30543261909900765,-0.4373794930964865,1756823034.063663
1.1700902514,-2.6632115537999996,7.6881390138,-0.05497787143782138,-0.10873401239924674,-0.4092797270459628,1756823034.071650
0.9092725879999999,-2.763710103,7.5302127222,0.05742133239061344,0.06841690667817772,-0.4532619892896349,1756823034.079641
0.5766702466,-2.7972096194,7.848458128,0.14172073526193954,0.2577851305195625,-0.4899139210348083,1756823034.087678
0.3038884702,-2.6608187312,8.3461652288,0.30421088862261164,0.4459316064312587,-0.5485569839018177,1756823034.095618
-0.1459621786,-2.3760728418,9.0424766054,0.378736465136062,0.5815437067645106,-0.6853907972581733,1756823034.103665
-0.5000999234,-1.9357934833999997,9.741180804599999,0.46792275500638725,0.6817256232822776,-0.7599163737716236,1756823034.111615
-0.9954142015999999,-1.3375878333999998,10.4757773428,0.4776966337241405,0.6914994321868608,-0.8845328649107262,1756823034.119613
-1.5218351735999998,-0.7202396025999999,10.4877414558,0.44837510229063576,0.6426302305843121,-1.0348057309607304,1756823034.127651
-1.962114532,-0.0502492746,9.949356370799999,0.4153883445213579,0.4654793115068877,-1.160643952576229,1756823034.135619
-2.2707886474,0.5694917787999999,9.6023970938,0.33719761148530447,0.22968532956245377,-1.2815952697394364,1756823034.143637
-2.3497517932,1.1796615417999998,9.518648302799999,0.2675589743307307,-0.06963863715457375,-1.39888143038004,1756823034.151636
-2.225325018,1.7419748528,9.8991070962,0.18081611050661253,-0.4153883445213579,-1.4966198335851375,1756823034.159615
-1.91425808,2.309073809,10.6743816186,0.08552113334772216,-0.8063421318746727,-1.539380347899121,1756823034.167620
-1.4548361408000001,2.8283163131999998,11.397014043799999,-0.09529497715889039,-1.1838568665343387,-1.6090190723201576,1756823034.175624
-0.8063812161999999,3.3164521235999995,11.4209422698,-0.23701571242082994,-1.5491542789767518,-1.6236797856770324,1756823034.183655
-0.0382851616,3.5102707541999996,10.9016997656,-0.3127630019573839,-1.9010125863656389,-1.627344959652928,1756823034.191618
0.9547362173999999,3.6514472876,10.377671616199999,-0.3103195584578843,-2.199114857512855,-1.5454891050008563,1756823034.199625
1.9884355805999998,3.5437702706,9.9326066126,-0.33597588100890846,-2.4385740483397695,-1.4550810497475501,1756823034.207634
3.0245277664,3.2757741393999997,9.451649269999999,-0.2993239667170275,-2.7342328759874865,-1.293812522143519,1756823034.215616
3.8907295475999994,2.9982067178,9.049655073199999,-0.3262020546510327,-2.9651398487598737,-1.1386527690945156,1756823034.223652
4.5870409242,2.8211378453999996,8.7625163612,-0.34819320322616126,-3.078760695798242,-1.0213666782670816,1756823034.231623
5.3192446398,2.5292134882,8.6572321668,-0.3262020546510327,-3.110525810357587,-0.8820894214112266,1756823034.239630
6.1519469046,1.9692929997999997,8.925228298,-0.35552358608453744,-2.9785789712666926,-0.7831292179165632,1756823034.247675
6.9367927173999995,1.423729447,9.229116768199999,-0.3616322035599326,-2.7256806579329593,-0.7501425125071628,1756823034.255617
7.7144600624,0.5862415369999999,9.3056870914,-0.37629296927668493,-2.3701571765681773,-0.736703459813514,1756823034.263608
8.238488211799998,-0.25124637299999997,9.1597249128,-0.39828413530510604,-1.9486601447582539,-0.7269296683622233,1756823034.271672
8.5998044244,-1.0743773474,8.985048863,-0.3872885784708342,-1.5442673745244604,-0.7635815477475192,1756823034.279642
8.681160392799999,-1.6151552550000001,8.841479507,-0.3750712562535814,-1.1288789601899325,-0.8002334271328151,1756823034.287651
8.6524465216,-2.1846470337999997,8.8151584584,-0.378736465136062,-0.7330382858376184,-0.8356636633081775,1756823034.295626
8.4969130526,-2.5148565526,8.49452023,-0.40561451816348215,-0.4227187273797341,-0.8784242474353311,1756823034.303634
8.0733834524,-2.5579273594,8.1284183722,-0.45937065912490754,-0.12583823906879116,-0.8491027160018264,1756823034.311650
7.7240313528,-2.5483560689999996,7.908278693,-0.4789183642005365,0.15760323145508795,-0.8723155601467658,1756823034.319689
7.3746792532,-2.6895326024,7.996813129199999,-0.5204571829447091,0.37140608227768585,-0.8124507493500679,1756823034.327638
7.0851477186,-3.0029923629999997,8.3174513576,-0.47525315531805595,0.5338962181850654,-0.7855726614160627,1756823034.335653
6.7166530382,-3.4169506728,8.6285182956,-0.5009095127756651,0.7024950239277177,-0.8051204013982768,1756823034.343675
6.3074803736,-3.7734812401999998,8.8151584584,-0.5082398956340413,0.8112290363269643,-0.7305948423381188,1756823034.351632
5.8313086762,-4.0342989036,9.0424766054,-0.4495968153137393,0.8564330639536175,-0.73792519028991,1756823034.359656
5.4293144793999994,-4.1108692268,9.236295236,-0.4117231705454623,0.8307766890427158,-0.698829849951822,1756823034.367666
5.0129633469999995,-4.0247276132,9.475577496,-0.39217546546983334,0.7684684521998107,-0.614530412173911,1756823034.375667
4.570291166,-3.8189448695999997,9.556933464399998,-0.39584067435231396,0.6328563518665589,-0.6426302305843121,1756823034.383644
4.1946180178,-3.5676984966,9.4444708022,-0.43493604959698695,0.5082398956340413,-0.6010913769335546,1756823034.391668
3.8691941441999997,-3.2685956715999995,9.198010074399999,-0.3995058483282095,0.3237585587916556,-0.6377433261320204,1756823034.399627
3.6131621259999998,-2.8881368781999996,8.865407733,-0.4508185457901353,0.1795943800302165,-0.6682865880419212,1756823034.407659
3.4624143021999996,-2.5363919559999997,8.542376681999999,-0.4642575810304917,0.04153883619746504,-0.6829473537586737,1756823034.415663
3.4145578501999996,-2.0721843715999997,8.3198441802,-0.4508185457901353,-0.07696902001294993,-0.8026769578987771,1756823034.423783
3.5916267226,-1.5529418674,8.1260255496,-0.4874704600820162,-0.14538592669112765,-0.8686503687175778,1756823034.431614
3.7878381757999997,-1.064806057,7.872386354,-0.4459316064312587,-0.2504547476611863,-0.9529497366823189,1756823034.439628
4.0869410008,-0.47377887479999997,7.5541409482,-0.5204571829447091,-0.3127630019573839,-1.011592817002621,1756823034.447630
4.5870409242,0.047856451999999994,7.453642399,-0.5338962181850654,-0.3885102914939378,-1.1349875951186201,1756823034.455650
5.2259245584,0.6149554081999999,7.410571592199999,-0.5668829410477582,-0.4520402762665313,-1.1643091265521246,1756823034.463685
5.9653067418,1.100698396,7.477570624999999,-0.5913175680289714,-0.49968774739268407,-1.2070697804924484,1756823034.471640
6.747759732,1.5146567058,7.6905318364,-0.6120869686744114,-0.5363396791378575,-1.1679743005280203,1756823034.479635
7.4608208668,1.8544375149999999,7.889136112199999,-0.679282109969608,-0.49968774739268407,-1.1093312900208885,1756823034.487703
7.987241838799999,2.177468566,7.685746191199999,-0.7318165553612224,-0.3848450826114571,-1.056796844629274,1756823034.495656
8.315058534999999,2.1726829208,7.0660051377999995,-0.7880161921820248,-0.23212879051524585,-0.973719207140929,1756823034.503648
8.5615192628,1.9429719511999999,6.2045890018,-0.8210028975914251,-0.0012217304763960308,-0.9407325017315287,1756823034.511662
8.5136628108,1.5098710605999999,5.072783911999999,-0.7501425125071628,0.2590068609959585,-0.8710938296703699,1756823034.519660
8.422735551999999,0.9020941201999999,4.2209390664,-0.6524040918487729,0.5974262029576589,-0.8319984195191118,1756823034.527628
8.262416437799999,0.47377887479999997,4.3262232608,-0.49480084294039245,0.9627236154000721,-0.7794640439406675,1756823034.535622
8.1020973236,0.42352960019999997,5.431707302,-0.4043927876870862,1.3756685164219304,-0.7623598172711231,1756823034.543667
7.5302127222,0.9164510557999999,6.9559352982,-0.4019493441875866,1.8167131485877275,-0.8026769578987771,1756823034.551661
6.7549381998,1.3112667848,8.1882389372,-0.4740314248416599,2.2577579378331576,-0.8833111518876227,1756823034.559632
5.9270215802,1.4165509792,8.805587168,-0.6426302305843121,2.6914723616735032,-0.9676105198523638,1756823034.567632
5.0679982668,1.1724830739999998,9.0592263636,-0.7159340591680741,3.0262263725796754,-1.0861183935160712,1756823034.575648
4.1850467274,0.71784678,9.296115801,-0.8906414998394138,3.279124685913409,-1.077566315087884,1756823034.583644
3.2518459134,0.18185451760000002,9.5904329808,-0.8930849433389134,3.444058247866996,-1.2131783979678434,1756823034.591639
2.3545374384,-0.4259224228,9.789037256599999,-0.9126326833211273,3.5161404332408237,-1.2913690786440193,1756823034.599703
1.5720844482,-1.1557333157999998,9.812965482600001,-0.8894197693630179,3.5002578672345055,-1.39888143038004,1756823034.607637
0.873380249,-1.91425808,9.6406822554,-0.7770205829878756,3.4074062288553595,-1.4672983021516328,1756823034.615657
0.2105683888,-2.6153551017999996,9.592825803399998,-0.6072000642221197,3.1740557951301804,-1.53204999994733,1756823034.624403
-0.3326023414,-3.1106693799999996,9.7722874984,-0.5009095127756651,2.8539624626742977,-1.5222761910427467,1756823034.631622
-0.8709874264,-3.3834511563999996,10.030712339199999,-0.37018431689470477,2.419026447983896,-1.4672983021516328,1756823034.639658
-1.2825529136,-3.5581272061999996,10.1527462918,-0.32986722862692824,1.8826867164861607,-1.494176390085638,1756823034.647671
-1.6007983193999997,-3.5485559157999997,10.2484591958,-0.3005456797401311,1.293812522143519,-1.4282029618135448,1756823034.655631
-1.7706887239999998,-3.4719855926,10.317851051199998,-0.3225368457685521,0.7159340591680741,-1.4453071186699191,1756823034.663654
-1.7204394494,-3.3714870433999997,10.2460663732,-0.33597588100890846,0.15393804002589986,-1.4257595008607529,1756823034.671671
-1.3567304141999998,-3.0963124444,10.021141048799999,-0.34330626386728463,-0.34697143784318024,-1.4379767532648355,1756823034.679905
-0.813559684,-2.7349962317999994,9.7818587888,-0.42149701435663056,-0.7208209636203656,-1.4282029618135448,1756823034.687649
-0.1339980656,-2.2779671151999996,9.556933464399998,-0.4276056667386107,-1.049466496677483,-1.3732250554691385,1756823034.695673
0.6029912951999999,-1.6462619487999999,9.2937229784,-0.5070181302510602,-1.2632692602336182,-1.3695598814932428,1756823034.703615
1.3830514628,-1.1892328321999999,9.1453679772,-0.613308681697515,-1.4330898662658365,-1.3891074818491167,1756823034.711660
2.0626130812,-0.9355936366,9.0664048314,-0.6487388480597073,-1.473406919627028,-1.3341297151310507,1756823034.719635
2.7349962317999994,-0.7250252477999999,9.162117735399999,-0.7061601979036133,-1.4013248738795399,-1.2791518262399366,1756823034.727668
3.385843979,-0.6245266986,9.439685157,-0.73792519028991,-1.2534954687823274,-1.209513223991948,1756823034.735643
3.8811582572,-0.490528633,9.6023970938,-0.8051204013982768,-1.032362287461231,-1.1459832566726469,1756823034.743640
4.1108692268,-0.19381863059999999,9.647860723199999,-0.8710938296703699,-0.7403686337894095,-1.097113985256928,1756823034.751631
4.137190275399999,-0.2129612114,9.7938229018,-0.8527678899777219,-0.4471533718142397,-1.0861183935160712,1756823034.759619
4.0893338234,-0.39720855159999996,9.8799645154,-0.8759807341226615,-0.15271630954950383,-1.0201449652439782,1756823034.767610
3.8668013215999997,-0.4139583098,9.7340023368,-0.8332202198086779,0.12339477811599911,-1.059240305582066,1756823034.775643
3.3092736557999998,-1.2945170266000001,9.9373922578,-0.8405505677604691,0.377514699753081,-0.9395107712551326,1756823034.783645
2.8259234905999997,-1.3974083984,10.0929257268,-0.7513642255302664,0.5900958375525753,-0.9786061115932205,1756823034.791651
2.285145583,-1.5936198516,10.628917989199998,-0.6646214140660257,0.718377520120866,-0.9749409376173249,1756823034.799648
1.6031911419999998,-1.3854442854,10.7940227486,-0.6585127267774605,0.7855726614160627,-0.9456193887305278,1756823034.807636
0.981057266,-1.3136596073999998,10.695917022,-0.6462954045602076,0.8002334271328151,-0.9395107712551326,1756823034.815653
0.30149564759999997,-1.5170495283999998,10.4279208908,-0.7208209636203656,0.7806857744170635,-0.9786061115932205,1756823034.823668
-0.09332008139999999,-1.7132609816,10.0713903234,-0.8405505677604691,0.718377520120866,-1.0629055493711317,1756823034.831651
-0.23928226,-2.0386848551999996,9.9828558872,-0.9004153611038747,0.5338962181850654,-1.174082935456708,1756823034.839680
-0.35892339,-2.4550359876,9.961320483799998,-0.9957103208094725,0.3506366467256608,-1.2583823557813265,1756823034.847661
-0.4259224228,-2.9216363946,9.810572659999998,-1.0091493735031214,0.19669860669976094,-1.3011430097216503,1756823034.855637
-0.42352960019999997,-3.218346397,9.4707918508,-1.0079276430267252,0.06230825429619756,-1.4001031434031437,1756823034.863657
-0.38285161599999995,-3.4552358344,9.1357966868,-0.9993754947853681,-0.04642575810304917,-1.4184290307359142,1756823034.871632
-0.2799602442,-3.7591243046,8.8510507974,-0.9321803534901714,-0.16859880574265224,-1.5027284510605328,1756823034.879684
-0.083748791,-4.007977855,8.702695796199999,-0.8857545953871222,-0.2516764781375823,-1.503950181536929,1756823034.887633
0.0861416136,-4.2209390664,8.6356967634,-0.7819074874401671,-0.2858849140233787,-1.5625932618572307,1756823034.895694
0.3158525832,-4.414757697,8.5734833758,-0.7586946432952276,-0.2797762965479835,-1.6077973592970538,1756823034.903624
0.6795616184,-4.362115599799999,8.6213398278,-0.7672467217234148,-0.24678955623199822,-1.6200146117011365,1756823034.911723
0.9858429112,-4.2376888246,8.9276211206,-0.7611381042480195,-0.21868975527488949,-1.6481144126582454,1756823034.919628
1.3136596073999998,-3.9481572899999997,9.5162554802,-0.877202447145765,-0.18081611050661253,-1.5332717129704334,1756823034.927647
1.4428720278,-3.4432717213999995,10.3992070196,-0.9957103208094725,-0.14416419621473162,-1.4782938240793195,1756823034.935634
1.3040883169999997,-2.7613172803999997,11.052447589399998,-1.1362093081417235,-0.0916297857297023,-1.370781611969639,1756823034.943652
1.0767701699999999,-2.189432679,11.1768743646,-1.323134071030316,-0.01832595714594046,-1.3280209580293152,1756823034.951672
0.8422735552,-2.1367905817999997,10.600204118,-1.3891074818491167,-0.039095375244672985,-1.2461651208305364,1756823034.959625
0.5647061336,-2.416750826,9.8273224182,-1.436755040241732,-0.08674286382411818,-1.0787880281109876,1756823034.967632
0.37088750299999995,-2.5818555854,9.365507656399998,-1.4404202142176277,-0.17837264955382048,-0.9896017033340774,1756823034.975669
0.1411765334,-2.6751756667999995,9.126225396399999,-1.4697417456511324,-0.28955012290585924,-0.8686503687175778,1756823034.983641
-0.1268195978,-2.8761727651999998,8.894121604199999,-1.473406919627028,-0.417831840380735,-0.7672467217234148,1756823034.991666
-0.3062812928,-3.1944181709999997,8.662017811999998,-1.4037683173790394,-0.575435071835823,-0.6976081194754261,1756823034.999681
-0.37328032559999996,-3.6729826909999996,8.434699665,-1.307251644650338,-0.7232644245731576,-0.6304129083670593,1756823035.007642
-0.3038884702,-4.2089749534,8.1020973236,-1.1068877767082188,-0.9040805350797702,-0.6072000642221197,1756823035.015648
-0.1387837108,-4.6253260858,7.948956677199999,-0.8991936306274786,-1.1105530204972844,-0.5717698280467574,1756823035.023653
0.15553346899999998,-4.8885365718,7.826922724599999,-0.7122688851921785,-1.330464541155155,-0.6401867696315201,1756823035.031643
0.658026215,-5.197210687199999,7.8819576444,-0.5277875658030853,-1.547932548500356,-0.6682865880419212,1756823035.039659
1.0863414604,-5.362315446599999,8.0494552264,-0.4422664324553631,-1.7825047127019313,-0.6389650566084165,1756823035.047669
1.6582260617999998,-5.455635528,8.2480595022,-0.318871654339364,-1.9889771981194453,-0.7049384674272172,1756823035.055630
2.4430718746,-5.2809594782,8.4418781328,-0.278554548618295,-2.1868976051087725,-0.7513642255302664,1756823035.063655
3.1968109935999998,-5.350351333599999,8.7864445872,-0.23701571242082994,-2.3469442626100676,-0.8344419328317815,1756823035.071639
4.0151563228,-5.4747781088,8.8701933782,-0.20891591146372127,-2.4654520141007272,-0.8295549760196123,1756823035.079629
4.881358103999999,-5.26420972,8.7553378934,-0.23945917337362202,-2.550973304528082,-0.8393288372840731,1756823035.087622
5.716453191399999,-5.02492746,8.5710905532,-0.14782938764391973,-2.579073105485191,-0.8527678899777219,1756823035.095637
6.606583198599999,-4.687539473399999,8.25523797,-0.15271630954950383,-2.6022860194433006,-0.8197811671150291,1756823035.103630
7.4249285278,-4.3214376156,7.8460653054,-0.158824961931484,-2.5240950769677366,-0.7709118956993103,1756823035.111679
8.2839518412,-3.7567314819999997,7.4225357052,-0.08918632477691024,-2.4837780236065456,-0.8319984195191118,1756823035.119646
9.006584266399999,-3.457628657,6.9559352982,-0.1637118838370681,-1.9645425711382323,-0.5619960365954666,1756823035.127655
9.5306124158,-3.3403803495999997,6.7812592484,-0.1795943800302165,-1.594358236790235,-0.5986479159807625,1756823035.135634
9.8368937086,-2.9934210726,6.6017975534,-0.23701571242082994,-1.1301006906663285,-0.4105014400690663,1756823035.143645
9.834500885999999,-2.7230321187999995,6.498906181599999,-0.23701571242082994,-0.5729916283363234,-0.35552358608453744,1756823035.151603
9.6000042712,-2.4311077616,6.5778693274,-0.21135937241651329,-0.059864793343405505,-0.2431243648028101,1756823035.159631
8.9276211206,-2.1056838879999997,6.7764736031999995,-0.16126842288427606,0.38973202197033374,-0.1832595714594046,1756823035.167614
8.154739420799999,-1.7084753364,7.042076911799999,-0.14416419621473162,0.7648032782239153,-0.11728612573401895,1756823035.175614
7.3052873978,-1.4428720278,7.307680220399999,-0.18692476288859272,1.0152579909785164,-0.10262536001726658,1756823035.183650
6.448656907,-1.2945170266000001,7.661817965199999,-0.2822197400474831,1.1863003100338383,-0.05742133239061344,1756823035.191637
5.7834522242,-1.4883356571999997,8.097311678399999,-0.3103195584578843,1.2278390938714259,-0.07330382858376185,1756823035.199643
5.1852465742,-1.722832272,8.288737486399999,-0.4019493441875866,1.2058479103897122,-0.10140362954087054,1756823035.207615
4.7425743932,-2.0434705004,8.4394853102,-0.3946189613292104,1.11421819447318,-0.1111774733520388,1756823035.215615
4.055834307,-1.746760498,8.49452023,-0.3225368457685521,1.1557570481239374,-0.10140362954087054,1756823035.223608
4.0821553556,-2.51246373,8.6787675702,-0.35674531656093345,0.9089675093452318,-0.14416419621473162,1756823035.231664
4.0031922098,-2.8642086522,8.9946201534,-0.31642817593327943,0.736703459813514,-0.11484266478122689,1756823035.239626
3.9625142255999997,-3.0819555087999997,9.183653138799999,-0.29321529688175485,0.6181955861498065,-0.09896016858807849,1756823035.247676
3.984049629,-3.314059301,9.0424766054,-0.2541199390903744,0.5742133588127195,-0.1356120828799594,1756823035.255627
4.168296969199999,-3.7782668854,8.6356967634,-0.18081611050661253,0.5473352708787143,-0.1111774733520388,1756823035.263631
4.3573299546,-4.498506488,8.2719877282,-0.13805554383275148,0.538783157543942,-0.14538592669112765,1756823035.271625
4.5678983434,-5.0799623797999995,7.980063371,-0.05131268000863329,0.5045746867515607,-0.08552113334772216,1756823035.279641
4.8478585876,-5.3790652048,7.824529902,0.048869219055841226,0.4459316064312587,-0.12461650859239512,1756823035.287693
5.1230331866,-5.4388857698,7.858029418399999,0.14782938764391973,0.3616322035599326,-0.0916297857297023,1756823035.295653
5.300102059,-5.4388857698,8.039883935999999,0.22846359908605773,0.3274237676741362,-0.04642575810304917,1756823035.303629
5.446064237599999,-5.312066172,8.3796647452,0.3103195584578843,0.35674531656093345,-0.010995574287564275,1756823035.311691
5.3551369788,-4.9220360882,8.6691962798,0.3860668479944382,0.4288273972150068,0.0158824961931484,1756823035.319665
5.2570312522,-4.5678983434,9.001798621199999,0.36285396894291366,0.5448917750193372,0.05742133239061344,1756823035.327638
4.989035121,-4.1060835816,9.3726861242,0.34330626386728463,0.6866125277345693,0.04153883619746504,1756823035.335650
4.7712882644,-3.7567314819999997,9.774680320999998,0.277332818141899,0.8368853937845735,0.035430183815484885,1756823035.343679
4.4769710846,-3.3714870433999997,10.0402836296,0.19792033717615698,0.9773843811168246,0.03298672286269283,1756823035.351671
4.1563328562,-3.2518459134,10.042676452199998,0.13194689145077132,1.038470904936626,0.009773843811168246,1756823035.359656
3.7830525305999996,-3.337987527,9.7555377402,0.0757472895365539,1.0616838188947357,0.02076941809873252,1756823035.367634
3.326023414,-3.5246276898,9.317651204399999,0.0916297857297023,1.0470230531779834,0.047647488579445195,1756823035.376259
2.8905297008,-3.6705898684,9.0951187026,0.08918632477691024,0.9981537817622645,0.03787364476827695,1756823035.383636
2.5052852621999997,-3.6825539814,9.0592263636,0.09896016858807849,0.972497476664533,0.06963863715457375,1756823035.391648
2.3042881638,-3.7088750299999997,9.0735832992,0.10506882097005864,0.9260717185614837,-0.007330382858376184,1756823035.399668
2.141576227,-3.6705898684,9.128618219,0.0916297857297023,0.9004153611038747,0.012217304763960306,1756823035.407629
2.021935097,-3.7351960785999996,9.2626162846,0.16859880574265224,0.8466591852358643,0.010995574287564275,1756823035.415662
1.926222193,-3.7950166436,9.420542576199999,0.18203784098300857,0.8368853937845735,-0.019547687622336492,1756823035.423673
1.7587246109999999,-3.6705898684,9.4301138666,0.19792033717615698,0.7977899836333155,-0.029321531433504737,1756823035.431624
1.5768700934,-3.5150563993999997,9.4181497536,0.26389378290154264,0.7648032782239153,-0.03787364476827695,1756823035.439657
1.4213366244,-3.4169506728,9.2578306394,0.2504547476611863,0.7061601979036133,0.03787364476827695,1756823035.447663
1.2011969452,-3.3786655112,8.992227330799999,0.26022859147235455,0.6267477343911637,0.0635299847725936,1756823035.455641
1.0671988796,-3.4432717213999995,8.7050886188,0.24068090385001803,0.519235452468313,0.0635299847725936,1756823035.463654
0.9451649269999999,-3.457628657,8.4610207136,0.26022859147235455,0.43249260609748735,0.10629055144645466,1756823035.471710
0.8757730715999998,-3.5030922863999994,8.288737486399999,0.29688050576423547,0.26145032194875056,0.05497787143782138,1756823035.479624
0.9643075078,-3.6370903519999995,8.3222370028,0.30909779307490326,0.1111774733520388,0.07452555906015787,1756823035.487629
1.0791629926,-3.6227334164,8.3174513576,0.33597588100890846,-0.014660765716752368,0.08674286382411818,1756823035.495650
1.232303639,-3.5772697869999996,8.2767733734,0.37140608227768585,-0.1356120828799594,0.05131268000863329,1756823035.503622
1.43569356,-3.4193434953999997,8.1858461146,0.3665191429188092,-0.1954768762233649,0.09773843811168245,1756823035.511722
1.5720844482,-3.0628129279999996,7.948956677199999,0.3726277953007894,-0.2724458962363148,0.05742133239061344,1756823035.519629
1.7515461431999997,-2.6943182475999996,7.6905318364,0.29688050576423547,-0.3518583772020568,0.09285151620609834,1756823035.527665
1.986042758,-2.4885355039999997,7.5182486092,0.2858849140233787,-0.4373794930964865,0.029321531433504737,1756823035.535648
2.237289131,-2.321037922,7.348358204599999,0.26633724385433466,-0.4899139210348083,-0.004886921905584123,1756823035.543665
2.5052852621999997,-2.1846470337999997,7.252645300599999,0.26022859147235455,-0.5632177496185702,-0.06963863715457375,1756823035.551626
2.7972096194,-1.9956140484,7.1688965096,0.2700024352835228,-0.6475171175833112,-0.13805554383275148,1756823035.559636
3.1704899449999995,-1.8161523534,7.1473611062,0.20769418098732523,-0.736703459813514,-0.18448130193580065,1756823035.567678
3.5796626096,-1.6558332392,7.307680220399999,0.23701571242082994,-0.7880161921820248,-0.2528982086139784,1756823035.575646
4.043870194,-1.5314064639999998,7.4727849798,0.23701571242082994,-0.8258898020437168,-0.26511551337793865,1756823035.583643
4.5080777784,-1.4859428345999999,7.637889739199999,0.19181168479417682,-0.8258898020437168,-0.31398473243377983,1756823035.591657
4.9340002012,-1.5840485612,7.7503524014,0.2309070600388498,-0.8319984195191118,-0.3274237676741362,1756823035.599665
5.2737810104,-1.6677973521999998,7.752745224,0.21868975527488949,-0.7305948423381188,-0.28466318354698267,1756823035.607629
5.5417771416,-1.8687944506,7.752745224,0.26145032194875056,-0.6181955861498065,-0.378736465136062,1756823035.615661
5.7475598852,-1.9956140484,7.891528934799999,0.2797762965479835,-0.4019493441875866,-0.34086282036778504,1756823035.623684
5.8408799666,-2.1272192914,8.1212399044,0.3225368457685521,-0.11239920382843482,-0.37995817815916555,1756823035.631642
5.8600225474,-2.3377876802,8.2815590186,0.3860668479944382,0.19669860669976094,-0.4117231705454623,1756823035.639666
5.812166095399999,-2.5842484079999997,8.5112699882,0.4618141026244071,0.5473352708787143,-0.34697143784318024,1756823035.647651
5.5704910128,-2.7804598611999998,8.793623055,0.5155702784924174,0.9162978572970231,-0.3262020546510327,1756823035.655656
5.194817864599999,-3.0053851856,9.085547412199999,0.5742133588127195,1.2412782163782448,-0.24190263432641407,1756823035.663637
4.7282174576,-3.1489545415999998,9.317651204399999,0.6560692658246685,1.5406020783755172,-0.18081611050661253,1756823035.671636
4.1730826144,-3.290131075,9.5880401582,0.7709118956993103,1.748296276816135,-0.06719517620178168,1756823035.679648
3.5940195451999997,-3.2207392195999995,9.925428144799998,0.8087855753741724,1.8961256819133472,0.07086036763096977,1756823035.687647
2.9407789753999998,-3.1561330094,10.3633146806,0.8710938296703699,1.9547687622336491,0.1747074581246324,1756823035.695663
2.2444675987999996,-3.1178478478,10.7940227486,0.9101892398216279,1.9779816761917586,0.26633724385433466,1756823035.703629
1.5218351735999998,-2.9694928466,11.1194466222,0.8686503687175778,1.971873041263071,0.35430182070155636,1756823035.711654
0.7465606511999999,-2.7828526838000003,11.425727915,0.8246680715673207,1.85214345457626,0.41661010990433894,1756823035.719649
0.035892338999999995,-2.5531417142,11.5142623512,0.6438519436074157,1.728748676460261,0.4630358680073881,1756823035.727645
-0.5312066172,-2.5627130046,11.449656141,0.5045746867515607,1.5442673745244604,0.49235736453430784,1756823035.735621
-1.124626622,-2.5842484079999997,11.160124606399998,0.417831840380735,1.3109168186262334,0.4789183642005365,1756823035.743650
-1.363908882,-2.775674216,10.849057668399999,0.32986722862692824,1.0616838188947357,0.4654793115068877,1756823035.751644
-1.5409777543999998,-2.7062823605999995,10.7102739576,0.3640756994193097,0.7134906156685744,0.4386012235728825,1756823035.759634
-1.4691930763999999,-2.3521446158,10.8705930718,0.37018431689470477,0.3640756994193097,0.40317105721069013,1756823035.767644
-1.0959127508,-1.9692929997999997,11.315658075399998,0.3885102914939378,-0.05375614096142535,0.43004911023811027,1756823035.775668
-0.9092725879999999,-1.1437692028,11.9330063062,0.36529741244241315,-0.4899139210348083,0.4129449010218584,1756823035.783748
-0.45463629399999994,-0.48574298779999997,12.181859856600001,0.2712241657599188,-0.8417722982368651,0.4263839362622147,1756823035.791617
0.0861416136,-0.11246266220000001,12.318250744799998,0.24678955623199822,-1.1239920731909332,0.37629296927668493,1756823035.799675
0.5431707302,-0.0215354034,12.335000502999998,0.1514945790731078,-1.2974776961194145,0.3933972308528144,1756823035.807656
1.2131610581999999,-0.3158525832,12.282358405799998,0.1514945790731078,-1.3316862716315512,0.3347541505325124,1756823035.815634
1.6079767872,-0.4642075844,12.143574694999998,0.158824961931484,-1.274264921787645,0.34086282036778504,1756823035.823632
