acc_x,acc_y,acc_z,gyro_x,gyro_y,gyro_z,timestamp
1.4763715441999998,-0.3493520996,10.2939228252,0.10506882097005864,-0.2309070600388498,0.01710422666954443,1756822821.025941
1.4907284798,-0.2656033086,10.351350567599999,0.06230825429619756,-0.21013764194011728,0.02199114857512855,1756822821.034035
1.447657673,-0.2225325018,10.3393864546,0.1111774733520388,-0.20525072003453315,0.0012217304763960308,1756822821.041997
1.4452648504,-0.1339980656,10.313065405999998,0.09285151620609834,-0.19792033717615698,-0.006108652381980153,1756822821.050011
1.4859428345999999,-0.0023928226,10.2915300026,0.10262536001726658,-0.20036379812894903,-0.03420845333908886,1756822821.058026
1.4931213023999999,0.09092725880000001,10.1383893562,0.09651670763528643,-0.18570303241219668,-0.029321531433504737,1756822821.066054
1.4907284798,0.24885355039999998,10.030712339199999,0.03665191429188092,-0.1710422666954443,-0.0317649923862968,1756822821.074008
1.5337992865999999,0.4139583098,9.9038927414,0.040317105721069016,-0.16859880574265224,-0.029321531433504737,1756822821.082005
1.567298803,0.5168496816,9.767501853199999,0.025656340004316644,-0.15393804002589986,-0.048869219055841226,1756822821.089993
1.6199409001999998,0.6173482307999999,9.714859756,-0.029321531433504737,-0.13194689145077132,-0.07086036763096977,1756822821.098053
1.6390834810000001,0.6795616184,9.7220382238,0.009773843811168246,-0.13194689145077132,-0.03298672286269283,1756822821.105994
1.6701901747999999,0.6963113766,9.841679353799998,0.004886921905584123,-0.08552113334772216,-0.006108652381980153,1756822821.114021
1.6199409001999998,0.7465606511999999,9.9373922578,0.039095375244672985,-0.07696902001294993,-0.05131268000863329,1756822821.121998
1.5481562222,0.7345965381999999,10.0163554036,0.03665191429188092,-0.06719517620178168,-0.023212879051524585,1756822821.130039
1.399801221,0.7250252477999999,9.949356370799999,0.01710422666954443,-0.0439822971502571,-0.058643062867009474,1756822821.138024
1.3136596073999998,0.7298108929999999,9.7938229018,0.04276056667386108,-0.05375614096142535,-0.047647488579445195,1756822821.146064
1.2442677519999998,0.8446663778,9.678967416999999,-0.0158824961931484,-0.04153883619746504,-0.05497787143782138,1756822821.154005
1.2921242039999998,0.9714859755999999,9.702895643,0.007330382858376184,-0.05742133239061344,-0.03420845333908886,1756822821.161987
1.2634103328,1.0145567824,9.731609514199999,-0.012217304763960306,-0.06719517620178168,-0.1111774733520388,1756822821.169995
1.2634103328,0.9475577495999999,9.762716207999999,-0.08185594191853406,-0.06841690667817772,-0.047647488579445195,1756822821.178011
1.3112667848,0.8279166196,9.853643466799998,-0.07819075048934597,-0.08063421144213803,0.0317649923862968,1756822821.186007
1.351944769,0.6388836341999999,9.9517491934,-0.09040805525330627,-0.079412480965742,-0.013439035240356337,1756822821.194006
1.2921242039999998,0.4139583098,9.966106128999998,-0.08307767239493008,-0.05009094953223726,0.03298672286269283,1756822821.202019
1.2275179938,0.1387837108,9.942177903,-0.03665191429188092,-0.06719517620178168,-0.048869219055841226,1756822821.209985
1.2370892842,-0.07178467799999999,9.9038927414,-0.06475171524898962,-0.09040805525330627,0.03298672286269283,1756822821.218012
1.2538390423999999,-0.2440679052,9.894321451,0.023212879051524585,-0.10018189906447451,-0.0317649923862968,1756822821.226000
1.2993026717999998,-0.38524443859999996,9.901499918799999,0.0024434609527920616,-0.10262536001726658,-0.02199114857512855,1756822821.234030
1.3902299305999999,-0.46660040699999994,9.990034354999999,0.06597344572538566,-0.12339477811599911,0.01710422666954443,1756822821.241977
1.5290136414,-0.47138605219999996,10.0713903234,0.06841690667817772,-0.15271630954950383,-0.029321531433504737,1756822821.250036
1.4093725114,-0.6197410534,10.073783145999998,0.07819075048934597,-0.1942551457469689,0.019547687622336492,1756822821.257991
1.5457633995999998,-0.5383850849999999,10.4829558106,0.11484266478122689,-0.24801128670839426,0.014660765716752368,1756822821.265994
1.2155538808,-0.3924229064,10.317851051199998,0.13439035240356337,-0.30298917559950816,-0.025656340004316644,1756822821.274017
0.8303094421999999,-0.39720855159999996,10.1383893562,0.15760323145508795,-0.4642575810304917,-0.014660765716752368,1756822821.281969
1.3088739621999999,-0.1579262916,10.396814196999998,0.14782938764391973,-0.594982742004867,0.04276056667386108,1756822821.290028
1.6773686425999998,-0.1746760498,10.0402836296,0.13439035240356337,-0.5693263845472578,-0.04520402762665313,1756822821.297980
1.5481562222,-0.29910282499999996,9.865607579799999,0.20036379812894903,-0.6010913769335546,0.0757472895365539,1756822821.306005
2.7541388125999995,0.19860427579999998,10.3704931484,0.21380283336930536,-0.4667010419832837,-0.1075122819228507,1756822821.314071
2.3832513096,0.22731814699999997,9.798608546999999,0.13194689145077132,-0.31398473243377983,0.0024434609527920616,1756822821.322054
1.8233308212,0.406779842,9.549754996599999,0.158824961931484,-0.35796702958403703,0.023212879051524585,1756822821.330006
1.7204394494,0.1770688724,9.767501853199999,0.10506882097005864,-0.4471533718142397,0.0317649923862968,1756822821.338005
3.4384860762,0.28713871199999996,9.571290399999999,0.15638150097869194,-0.24068090385001803,-0.019547687622336492,1756822821.346059
3.2303105100000002,0.22492532440000002,9.7076812882,0.13439035240356337,0.07208209810736581,0.019547687622336492,1756822821.354032
2.763710103,0.6317051664,9.4612205604,0.16859880574265224,0.1637118838370681,0.0439822971502571,1756822821.362037
2.7828526838000003,1.1054840412,9.5401837062,0.14049900478554353,0.20280725908174108,0.029321531433504737,1756822821.369999
2.715853651,1.2203395259999998,9.7459664498,0.07208209810736581,0.28466318354698267,0.006108652381980153,1756822821.378013
2.4023938904,1.2801600909999997,9.8608219346,0.14172073526193954,0.2858849140233787,0.09529497715889039,1756822821.386053
2.3282163898,1.4739787215999998,9.985248709799999,0.10873401239924674,0.26878070480712674,0.11484266478122689,1756822821.394033
2.2827527604,1.5553346899999998,9.9756774194,0.13439035240356337,0.22846359908605773,0.09773843811168245,1756822821.402072
2.1822542112,1.5146567058,9.9349994352,0.1551597705022959,0.16004669240788003,0.13439035240356337,1756822821.410000
2.1535403399999997,1.8687944506,9.887142983199999,0.11728612573401895,0.0916297857297023,0.11239920382843482,1756822821.418021
2.1822542112,1.8568303376,9.865607579799999,0.11728612573401895,0.06475171524898962,0.17348572764823636,1756822821.426037
2.3306092123999997,1.8113667082,9.9086783866,0.06597344572538566,0.06597344572538566,0.12461650859239512,1756822821.434010
2.4143580034,1.6558332392,10.0522477426,0.09651670763528643,0.0879645943005142,0.15638150097869194,1756822821.442029
2.4598216327999998,1.363908882,10.145567823999999,0.12461650859239512,0.08429940287132612,0.16615534478986016,1756822821.450038
2.4023938904,0.9236295236,10.269994599199999,0.1710422666954443,0.12950343049797924,0.13805554383275148,1756822821.458003
2.2803599377999997,0.8159525066,10.341779277199999,0.24068090385001803,0.14294246573833558,0.20525072003453315,1756822821.466233
2.1343977592,0.7680960546,10.384850083999998,0.26022859147235455,0.16126842288427606,0.13439035240356337,1756822821.474072
1.9238293703999998,0.5790630692,10.4757773428,0.2834414705238791,0.11728612573401895,0.2431243648028101,1756822821.482033
1.8807585636,0.5670989562,10.516455327000001,0.3518583772020568,0.048869219055841226,0.2577851305195625,1756822821.490015
1.9214365477999997,0.669990328,10.5140625044,0.32986722862692824,0.0158824961931484,0.26511551337793865,1756822821.498009
1.8424734019999998,0.7585247641999999,10.4853486332,0.34819320322616126,-0.03787364476827695,0.3249803241746367,1756822821.506040
2.021935097,0.6077769404,10.346564922399999,0.3152064454568834,-0.05131268000863329,0.2907718533822553,1756822821.514043
1.8783657409999999,0.7561319416,10.317851051199998,0.2528982086139784,-0.11239920382843482,0.3616322035599326,1756822821.521992
2.021935097,0.5910271822,10.3322079868,0.2834414705238791,-0.1282817000215832,0.35552358608453744,1756822821.530007
1.9908284031999999,0.9882357338,10.382457261399999,0.20769418098732523,-0.0757472895365539,0.359188760060433,1756822821.538020
1.9573288867999998,1.3782658176,10.3226366964,0.15393804002589986,-0.08552113334772216,0.3860668479944382,1756822821.546068
2.0554346134,1.1318050897999998,10.2628161314,0.048869219055841226,-0.08063421144213803,0.3494149162492648,1756822821.554038
2.1056838879999997,0.9116654106,10.4063854874,0.09529497715889039,-0.0439822971502571,0.40561451816348215,1756822821.562012
1.9740786449999999,1.1988041226,10.5906328276,0.06597344572538566,-0.0635299847725936,0.378736465136062,1756822821.569998
1.9525432416,1.4835500119999998,10.5667046016,0.0158824961931484,-0.07452555906015787,0.3885102914939378,1756822821.578023
1.8999011443999998,1.4141581565999999,10.396814196999998,-0.006108652381980153,-0.07452555906015787,0.3848450826114571,1756822821.586021
1.8137595307999999,1.0528419439999999,10.1383893562,-0.025656340004316644,-0.0757472895365539,0.37629296927668493,1756822821.594058
1.6893327556,0.8829515394,9.705288465599999,0.07696902001294993,-0.09040805525330627,0.3848450826114571,1756822821.601996
1.4811571894,1.2729816232,9.322436849599999,0.08918632477691024,-0.079412480965742,0.3750712562535814,1756822821.610020
1.2179467034,1.1772687192,8.961120637,0.0439822971502571,-0.09651670763528643,0.39828413530510604,1756822821.618003
0.9260223461999999,1.328016543,8.5232341012,0.079412480965742,-0.08429940287132612,0.3848450826114571,1756822821.626029
0.7322037155999999,0.6963113766,8.226524098799999,0.14782938764391973,-0.07696902001294993,0.3494149162492648,1756822821.634014
0.5479563754,0.38045879339999994,8.2408810344,0.22846359908605773,-0.09040805525330627,0.3909537524467298,1756822821.642014
0.2321037922,0.3613162126,8.618947005199999,0.36285396894291366,-0.10262536001726658,0.359188760060433,1756822821.650019
-0.045463629400000004,0.5431707302,9.162117735399999,0.33597588100890846,-0.1356120828799594,0.3616322035599326,1756822821.658044
-0.2536391956,0.6460621019999999,9.690931529999999,0.3860668479944382,-0.1551597705022959,0.3494149162492648,1756822821.666055
-0.3397808092,1.0384850084,10.0642118556,0.3457497073667842,-0.22479840765686965,0.29443706226473587,1756822821.674007
-0.3397808092,1.0743773474,10.238887905399999,0.2797762965479835,-0.29443706226473587,0.34452799434368064,1756822821.682008
-0.26321048599999997,1.1916256548,10.2628161314,0.2724458962363148,-0.36896258641830876,0.30543261909900765,1756822821.690020
-0.1603191142,1.1150553316,10.2484591958,0.2040289895581371,-0.4520402762665313,0.359188760060433,1756822821.698003
-0.0646062102,1.088734283,10.217352501999999,0.24801128670839426,-0.5338962181850654,0.37629296927668493,1756822821.706042
0.0693918554,1.100698396,10.1383893562,0.22357667718047364,-0.55710909723659,0.3262020546510327,1756822821.714012
0.2775674216,1.1270194446,9.985248709799999,0.26633724385433466,-0.5937610115284709,0.34330626386728463,1756822821.722060
0.6077769404,0.7992027483999999,9.925428144799998,0.39584067435231396,-0.5693263845472578,0.28710667940635975,1756822821.730021
0.8207381518,0.9738787981999999,9.8608219346,0.4801400772236401,-0.5510004448546099,0.3005456797401311,1756822821.738006
1.3686945272,0.6388836341999999,9.6382894328,0.7012732934513216,-0.5852088807404061,0.33231070703301285,1756822821.746018
1.5768700934,1.5864413838,9.798608546999999,0.73792519028991,-0.6719517620178169,0.2309070600388498,1756822821.754036
2.0769700168,1.5290136414,9.6143612068,0.7586946432952276,-0.7464773210779748,0.23945917337362202,1756822821.762005
2.2683958248,1.0839486378,9.592825803399998,0.7916813661579204,-0.7794640439406675,0.21991148575128552,1756822821.770040
2.189432679,0.7250252477999999,9.427721044,0.8381071068076771,-0.7562511997957281,0.24556782575560218,1756822821.778021
1.9836499354,0.7800601676,9.152546445,0.9236282052488142,-0.7403686337894095,0.1954768762233649,1756822821.786251
1.7730815465999998,0.8997012976000001,8.8869431364,0.9749409376173249,-0.7037167544041136,0.22602013813326566,1756822821.794040
1.4644074311999997,1.100698396,8.8558364426,1.075122784321922,-0.6194173864393725,0.1954768762233649,1756822821.802005
0.9475577495999999,2.4430718746,9.0352981376,1.070235897322923,-0.5729916283363234,0.0879645943005142,1756822821.810004
0.7657032319999999,2.6297120374,9.267401929799998,0.9004153611038747,-0.48136180770003606,0.06841690667817772,1756822821.818024
0.3900300838,3.2638100264,9.1238325738,0.6365215956556246,-0.4776966337241405,-0.06719517620178168,1756822821.826002
0.2919243572,3.1680971224,8.925228298,0.5693263845472578,-0.43493604959698695,-0.08429940287132612,1756822821.834031
0.1746760498,3.6945180944,9.0233340246,0.5277875658030853,-0.4471533718142397,-0.16615534478986016,1756822821.842012
0.2967100024,4.5152562462,9.5856473356,0.43127084071450633,-0.3848450826114571,-0.13683381335635544,1756822821.850004
0.6915257314,5.388636495199999,10.7940227486,0.2700024352835228,-0.3262020546510327,-0.17348572764823636,1756822821.858045
1.1437692028,5.790630692,12.3804641324,0.10506882097005864,-0.24434609527920614,-0.039095375244672985,1756822821.866024
1.2849457362,6.161518194999999,12.9044922818,-0.0317649923862968,-0.28955012290585924,0.0012217304763960308,1756822821.874041
1.2011969452,6.1567325498,11.9736842904,-0.1551597705022959,-0.4141666314982544,0.07696902001294993,1756822821.882037
1.1676974288,5.551348432,10.813165329399999,-0.19792033717615698,-0.5803219762881145,0.17348572764823636,1756822821.890019
1.4524433181999998,4.943571491599999,10.145567823999999,-0.20769418098732523,-0.7794640439406675,0.18692476288859272,1756822821.898008
2.2803599377999997,4.5535414078,9.7651090306,-0.10262536001726658,-0.8491027160018264,0.20280725908174108,1756822821.906066
3.266202849,4.3645084224,9.6933243526,-0.10140362954087054,-0.8527678899777219,0.1637118838370681,1756822821.914017
4.146761565799999,4.199403663,9.803394192199999,-0.05497787143782138,-0.6939428756863605,0.15271630954950383,1756822821.922014
4.467399794199999,4.2376888246,10.198209921199998,-0.11850785621041497,-0.5839871502640102,0.06963863715457375,1756822821.930056
4.7353959254,3.8141592244,10.5547404886,-0.21135937241651329,-0.48380525119953566,0.08429940287132612,1756822821.938031
4.869393991,3.0412775246,10.5260266174,-0.2565634000431664,-0.4227187273797341,0.006108652381980153,1756822821.946039
5.0536413312,1.8137595307999999,10.2245309698,-0.24678955623199822,-0.3457497073667842,-0.04153883619746504,1756822821.954011
5.3814580274,0.8829515394,9.8799645154,-0.21746802479849348,-0.3005456797401311,-0.12583823906879116,1756822821.962021
5.773880933799999,0.1531406464,9.5641119322,-0.19792033717615698,-0.19303341527057286,-0.2150245638457014,1756822821.970031
5.9796636774,-0.5694917787999999,9.2626162846,-0.26389378290154264,-0.12217304763960307,-0.21013764194011728,1756822821.978004
5.972485209599999,-0.849452023,9.020941202,-0.1514945790731078,-0.02199114857512855,-0.23945917337362202,1756822821.986137
5.7714881112,-0.8422735552,8.9467637014,-0.1637118838370681,0.058643062867009474,-0.21380283336930536,1756822821.994017
5.431707302,-0.7776673449999999,8.97308475,-0.16493361431346412,0.1270599695451872,-0.23335052099164186,1756822822.001997
4.974678185399999,-0.9260223461999999,8.9443708788,-0.08674286382411818,0.16859880574265224,-0.21868975527488949,1756822822.010046
4.488935197599999,-1.4309079147999997,8.829515394,-0.07330382858376185,0.16004669240788003,-0.18203784098300857,1756822822.017999
4.007977855,-1.8687944506,8.7673020064,0.019547687622336492,0.11606439525762292,-0.14905111812031574,1756822822.026030
3.6825539814,-2.0793628394,8.7888374098,-0.009773843811168246,0.03787364476827695,-0.13439035240356337,1756822822.034012
3.5892338999999995,-1.9669001771999999,8.8701933782,-0.0024434609527920616,-0.030543261909900768,-0.10018189906447451,1756822822.041987
3.5964123677999997,-1.6462619487999999,9.0424766054,0.01710422666954443,-0.07696902001294993,-0.05131268000863329,1756822822.049997
3.5700913191999994,-1.1318050897999998,9.0879402348,-0.06963863715457375,-0.06719517620178168,-0.012217304763960306,1756822822.057978
3.4552358344,-0.4881358104,8.939585233599999,-0.04520402762665313,-0.06230825429619756,0.079412480965742,1756822822.065998
3.1920253484,0.23928226,8.6907316832,-0.058643062867009474,-0.03420845333908886,0.08063421144213803,1756822822.074040
2.7900311515999996,0.8111668613999999,8.482556117,-0.09529497715889039,-0.028099800957108706,0.1282817000215832,1756822822.081987
2.476571391,0.7776673449999999,8.6237326504,-0.0158824961931484,-0.039095375244672985,0.09285151620609834,1756822822.090008
2.2779671151999996,0.38045879339999994,9.0185483794,-0.025656340004316644,-0.06963863715457375,0.08185594191853406,1756822822.097982
2.368894374,0.15074782379999999,9.420542576199999,0.01710422666954443,-0.10629055144645466,0.05375614096142535,1756822822.105990
2.5459632464,-0.1770688724,9.387043059799998,-0.06475171524898962,-0.14172073526193954,-0.01832595714594046,1756822822.114020
2.7661029256,-0.24167508259999998,8.9754775726,-0.10262536001726658,-0.12217304763960307,-0.026878070480712675,1756822822.122002
2.9623143788,-0.2105683888,8.4873417622,-0.0916297857297023,-0.10873401239924674,-0.10995574287564276,1756822822.129986
3.1800612353999997,0.2823530668,8.4394853102,-0.11484266478122689,-0.05375614096142535,-0.17226399717184032,1756822822.137993
3.397808092,0.8685946038,8.9587278144,-0.029321531433504737,0.01832595714594046,-0.18570303241219668,1756822822.146076
3.4432717213999995,1.3902299305999999,9.248259349,-0.012217304763960306,0.09407324668249435,-0.26389378290154264,1756822822.154018
3.326023414,1.5266208188,9.4707918508,0.04276056667386108,0.1111774733520388,-0.31642817593327943,1756822822.162057
3.242274623,1.5529418674,9.427721044,0.12217304763960307,0.061086523819801536,-0.37384952577718544,1756822822.170000
3.2111679292,1.5625131578,9.2769732202,0.18081611050661253,-0.026878070480712675,-0.34452799434368064,1756822822.178038
3.1848468806,1.3471591237999998,8.9204426528,0.3225368457685521,-0.158824961931484,-0.3347541505325124,1756822822.186027
3.4241291405999994,1.0959127508,8.5615192628,0.39828413530510604,-0.29443706226473587,-0.2834414705238791,1756822822.194021
3.8261233374,1.0121639597999998,8.4203427294,0.4886921905584123,-0.4398229889558636,-0.2577851305195625,1756822822.202005
4.362115599799999,1.160518961,8.4562350684,0.5155702784924174,-0.5815437067645106,-0.1637118838370681,1756822822.210024
4.8430729424,1.4213366244,8.602197247,0.4935791299172889,-0.678060379493212,-0.05131268000863329,1756822822.218184
5.216353267999999,1.6031911419999998,8.877371845999999,0.4447098934081552,-0.6976081194754261,0.05253441048502932,1756822822.226010
5.5345986738,2.0865413072,9.245866526399999,0.3335324375094089,-0.6646214140660257,0.11362093430483085,1756822822.234007
5.907878999399999,2.3353948576,8.7409809578,0.1954768762233649,-0.5827654197876142,0.17837264955382048,1756822822.241985
6.125625855999999,2.2564317118,7.793423208199999,0.19181168479417682,-0.5436700619962336,0.23212879051524585,1756822822.250009
6.3984076324,2.4622144554000003,7.7144600624,0.11484266478122689,-0.498466016916288,0.29688050576423547,1756822822.258041
6.766902312799999,2.0362920326,8.717052731799999,0.06230825429619756,-0.36896258641830876,0.36285396894291366,1756822822.265987
6.5994047308,2.2396819536,9.9445707256,0.0024434609527920616,-0.2675589743307307,0.36529741244241315,1756822822.274000
6.4271215036,1.9597217094000001,9.889535805799998,-0.14538592669112765,-0.15638150097869194,0.2907718533822553,1756822822.281975
5.800201982399999,1.4883356571999997,9.0664048314,-0.20036379812894903,-0.10873401239924674,0.43249260609748735,1756822822.290036
5.2570312522,1.208375413,8.556733617599999,-0.1881464933649887,-0.1392772743091475,0.42027528388023455,1756822822.297992
4.8981078622,1.3375878333999998,8.8701933782,-0.13805554383275148,-0.18448130193580065,0.4117231705454623,1756822822.306142
4.5296131818,1.5984054967999999,9.4971128994,-0.16004669240788003,-0.18936822384138474,0.4520402762665313,1756822822.314013
4.204189308199999,1.8065810629999999,10.083354436399999,-0.14538592669112765,-0.158824961931484,0.40683623118658574,1756822822.321987
3.7806597079999995,1.7204394494,10.2508520184,-0.12095131716320703,-0.10262536001726658,0.32986722862692824,1756822822.330030
3.457628657,1.4285150921999998,9.9565348386,-0.1514945790731078,-0.01832595714594046,0.24556782575560218,1756822822.338031
2.9455646206,1.1030912186,9.387043059799998,-0.07208209810736581,-0.05742133239061344,0.2541199390903744,1756822822.346010
2.679961312,1.0384850084,9.358329188599999,-0.059864793343405505,-0.059864793343405505,0.13683381335635544,1756822822.354066
2.5148565526,1.0791629926,9.0735832992,-0.08185594191853406,-0.07086036763096977,0.12095131716320703,1756822822.361999
2.6823541345999997,0.9499505721999999,8.709874264,-0.13439035240356337,-0.07696902001294993,0.10140362954087054,1756822822.370025
3.0652057506,0.7393821834,8.4729848266,-0.20036379812894903,-0.014660765716752368,0.05375614096142535,1756822822.378041
3.4360932535999997,0.6029912951999999,8.257630792599999,-0.08918632477691024,0.06719517620178168,-0.01832595714594046,1756822822.386050
3.5270205123999996,0.6197410534,8.398807326,-0.08918632477691024,0.07208209810736581,-0.11972958668681101,1756822822.394031
3.7280176108,0.6317051664,8.6333039408,-0.059864793343405505,0.04520402762665313,-0.13072516097437528,1756822822.402061
3.6801611588,0.5718846014,8.7290168448,-0.0024434609527920616,-0.028099800957108706,-0.14294246573833558,1756822822.409997
3.6538401101999995,0.46899322959999995,8.7864445872,-0.007330382858376184,-0.07696902001294993,-0.16982053621904827,1756822822.418024
3.7758740628,0.5599204884,8.7864445872,0.08918632477691024,-0.14294246573833558,-0.1392772743091475,1756822822.426041
4.1324046302,0.9403792818,9.0041914438,0.14416419621473162,-0.1759291886010284,-0.19792033717615698,1756822822.434037
4.582255279,1.375872995,9.1597249128,0.18448130193580065,-0.18203784098300857,-0.22357667718047364,1756822822.441986
4.9196432655999995,1.6845471104,8.9898345082,0.21380283336930536,-0.158824961931484,-0.22113321622768156,1756822822.450019
5.197210687199999,1.7706887239999998,8.6285182956,0.13194689145077132,-0.10995574287564276,-0.1954768762233649,1756822822.458011
5.455635528,1.8065810629999999,8.4969130526,0.1942551457469689,-0.040317105721069016,-0.08429940287132612,1756822822.466040
5.6135618196,1.8089738855999997,8.4873417622,0.14416419621473162,0.047647488579445195,-0.08674286382411818,1756822822.474077
5.6087761744,1.6103696097999998,8.547162327199999,0.14905111812031574,0.1270599695451872,0.007330382858376184,1756822822.482024
5.388636495199999,1.4428720278,8.7649091838,0.14416419621473162,0.20525072003453315,0.05009094953223726,1756822822.490035
4.9962135888,1.4045868661999998,9.121439751199999,0.11606439525762292,0.2675589743307307,0.10262536001726658,1756822822.498008
4.5535414078,1.5744772707999999,9.4181497536,0.14416419621473162,0.2565634000431664,0.14172073526193954,1756822822.506056
4.168296969199999,1.6462619487999999,9.619146851999998,0.09896016858807849,0.20036379812894903,0.15760323145508795,1756822822.514014
3.8356946277999997,1.6582260617999998,9.6406822554,0.12583823906879116,0.14294246573833558,0.2345722514680379,1756822822.522025
3.6658042231999994,1.7563317884,9.6023970938,0.12461650859239512,0.07696902001294993,0.20158552860534507,1756822822.530008
3.6586257554,1.8185451759999998,9.597611448599999,0.1282817000215832,0.03420845333908886,0.24434609527920614,1756822822.538029
3.6921252717999997,1.8329021115999997,9.6885387074,0.17837264955382048,0.04520402762665313,0.26389378290154264,1756822822.546039
3.6179477711999994,1.7443676754,9.7340023368,0.15760323145508795,0.03420845333908886,0.24801128670839426,1756822822.554029
3.3954152693999995,1.6295121905999999,9.607182738999999,0.2150245638457014,0.039095375244672985,0.277332818141899,1756822822.562016
3.0293134116,1.6055839646,9.523433948,0.1954768762233649,0.028099800957108706,0.26267205242514663,1756822822.570012
2.8450660714,1.9597217094000001,9.6358966102,0.12950343049797924,0.008552113334772215,0.2553416695667704,1756822822.578009
2.835494781,1.6175480776,9.7220382238,0.16126842288427606,0.008552113334772215,0.2577851305195625,1756822822.586176
2.895315346,1.2897313813999998,9.5066841898,0.10262536001726658,0.0,0.16982053621904827,1756822822.594059
2.763710103,1.124626622,9.248259349,0.09040805525330627,0.04276056667386108,0.15638150097869194,1756822822.602007
2.6201407469999998,0.9379864591999999,8.9419780562,0.1356120828799594,0.06719517620178168,0.079412480965742,1756822822.609999
2.3042881638,0.7848458128,8.5328053916,0.1111774733520388,0.058643062867009474,0.04642575810304917,1756822822.618009
2.0578274359999997,0.7585247641999999,8.293523131599999,0.16859880574265224,0.09040805525330627,0.029321531433504737,1756822822.625999
2.0243279195999997,0.8207381518,8.4658063588,0.09529497715889039,0.10384709049366261,-0.07086036763096977,1756822822.634106
1.9812571127999998,0.9379864591999999,8.97308475,0.06963863715457375,0.16982053621904827,-0.0879645943005142,1756822822.641991
2.1320049365999996,1.2035897677999998,9.358329188599999,0.05253441048502932,0.19914206765255302,-0.18570303241219668,1756822822.650015
2.2301106632,1.2969098492,9.5736832226,0.003665191429188092,0.24434609527920614,-0.21380283336930536,1756822822.658052
2.4717857457999997,1.5481562222,9.6047899164,0.010995574287564275,0.23701571242082994,-0.2797762965479835,1756822822.666012
2.6009981662,1.7108681589999999,9.667003304,-0.040317105721069016,0.22846359908605773,-0.29565879274113194,1756822822.674037
2.6464617955999996,1.6941184007999999,9.710074110799999,-0.04153883619746504,0.2357939819444339,-0.32131511529215606,1756822822.682041
2.5627130046,1.67497582,9.8632147572,-0.007330382858376184,0.2590068609959585,-0.4092797270459628,1756822822.690017
2.4909283265999997,1.6486547713999997,9.9086783866,0.006108652381980153,0.28832839242946323,-0.4386012235728825,1756822822.698034
2.5076780847999998,1.6366906583999998,9.7722874984,0.0635299847725936,0.3005456797401311,-0.43249260609748735,1756822822.706069
2.5100709074,1.7563317884,9.5904329808,0.10506882097005864,0.278554548618295,-0.46792275500638725,1756822822.714020
2.5722842949999998,1.9884355805999998,9.6502535458,0.1624901533606721,0.23823744289722598,-0.40805796166298175,1756822822.722022
2.5698914724,2.2827527604,9.7555377402,0.1881464933649887,0.20036379812894903,-0.41905355340383854,1756822822.730025
2.6512474407999997,2.4335005842,10.021141048799999,0.18081611050661253,0.19914206765255302,-0.3506366467256608,1756822822.738030
2.5483560689999996,2.5052852621999997,10.1048898398,0.19181168479417682,0.22602013813326566,-0.3127630019573839,1756822822.746009
2.3473589705999998,2.3521446158,9.9565348386,0.16859880574265224,0.2724458962363148,-0.3249803241746367,1756822822.754014
1.9740786449999999,2.309073809,9.458827737799998,0.14172073526193954,0.3494149162492648,-0.3103195584578843,1756822822.761997
1.4548361408000001,2.4239292938,9.1142612834,0.19181168479417682,0.4092797270459628,-0.2797762965479835,1756822822.770028
0.9164510557999999,2.6847469572,9.162117735399999,0.22357667718047364,0.4691444854827833,-0.2272418686096617,1756822822.777995
0.4283152454,3.0173492986,9.4612205604,0.2431243648028101,0.47525315531805595,-0.1747074581246324,1756822822.786038
-0.1459621786,3.2805597846,9.789037256599999,0.23701571242082994,0.45814892864851153,-0.17226399717184032,1756822822.794034
-0.6915257314,3.3332018818,10.1240324206,0.2309070600388498,0.4263839362622147,-0.1270599695451872,1756822822.802048
-1.2251251712,3.0364918794,9.8919286284,0.26022859147235455,0.3176499413162605,-0.11728612573401895,1756822822.810058
-1.399801221,2.8785655878,9.643075077999999,0.2907718533822553,0.20525072003453315,-0.15027284859671178,1756822822.818002
-1.2634103328,2.9671000239999996,9.9326066126,0.3750712562535814,0.10506882097005864,-0.14049900478554353,1756822822.826007
-0.8327022648,3.6059836581999996,11.0691973476,0.339641054984804,0.06475171524898962,-0.13072516097437528,1756822822.834053
-0.39960137419999997,4.010370677599999,12.1890383244,0.277332818141899,0.06841690667817772,-0.16859880574265224,1756822822.841995
-0.0095712904,4.2305103568,12.693923893,0.20280725908174108,0.0024434609527920616,-0.16982053621904827,1756822822.850039
0.4163511324,4.338187373799999,12.806386555199998,0.040317105721069016,-0.1392772743091475,-0.1832595714594046,1756822822.858042
0.9188438783999999,4.338187373799999,12.3517502612,0.009773843811168246,-0.4105014400690663,-0.1282817000215832,1756822822.866021
1.5840485612,4.273581163599999,11.617153723,-0.06841690667817772,-0.635299882632521,-0.12217304763960307,1756822822.874038
2.5268206656,4.168296969199999,10.9495562176,-0.058643062867009474,-0.8002334271328151,-0.07208209810736581,1756822822.882026
3.649054465,3.8739797894,10.241280727999998,-0.06597344572538566,-0.8124507493500679,-0.09407324668249435,1756822822.890216
4.5056849558,3.6418759971999997,9.7244310464,-0.023212879051524585,-0.7208209636203656,-0.10018189906447451,1756822822.898044
5.1493542352,3.6251262389999996,9.6095755616,0.04276056667386108,-0.5595525756426746,-0.10018189906447451,1756822822.906030
5.426921656799999,3.9170505961999997,9.702895643,0.026878070480712675,-0.3848450826114571,-0.1624901533606721,1756822822.914072
5.2067819775999995,4.2017964856,9.664610481399999,0.048869219055841226,-0.277332818141899,-0.16859880574265224,1756822822.922003
4.8550370553999995,4.4434715682,9.5880401582,0.023212879051524585,-0.26145032194875056,-0.18448130193580065,1756822822.930006
4.5320060043999995,4.433900277799999,9.3966143502,-0.13805554383275148,-0.2272418686096617,-0.23701571242082994,1756822822.938041
4.338187373799999,4.0462630166,9.090333057399999,-0.17348572764823636,-0.17837264955382048,-0.2712241657599188,1756822822.946015
4.1419759206,3.2111679292,8.6309111182,-0.2797762965479835,-0.08918632477691024,-0.3127630019573839,1756822822.954045
3.8380874503999998,2.4143580034,8.2648092604,-0.3127630019573839,-0.009773843811168246,-0.3677408733952052,1756822822.962027
3.7950166436,1.7252250945999998,8.2863446638,-0.3237585587916556,0.03787364476827695,-0.37140608227768585,1756822822.970088
3.8261233374,1.100698396,8.386843212999999,-0.3530801076784529,0.07330382858376185,-0.36529741244241315,1756822822.978006
3.82851616,0.7345965381999999,8.484948939599999,-0.2736676267127109,0.07208209810736581,-0.41661010990433894,1756822822.985998
3.9792639838,0.6293123438,8.676374747599999,-0.26022859147235455,0.08429940287132612,-0.4422664324553631,1756822822.994024
4.0845481781999995,0.6269195211999999,8.9635134596,-0.21868975527488949,0.1270599695451872,-0.5106833391335408,1756822823.002000
4.2281175342,0.49770710079999997,9.3128655592,-0.18081611050661253,0.15027284859671178,-0.555887366760194,1756822823.010072
4.247260115,0.167497582,9.3966143502,-0.21380283336930536,0.13316862192716733,-0.5668829410477582,1756822823.018005
4.1970108404,-0.47138605219999996,9.3296153174,-0.17837264955382048,0.06475171524898962,-0.555887366760194,1756822823.026029
4.235296001999999,-0.9427721043999999,9.1429751546,-0.16493361431346412,-0.06230825429619756,-0.6487388480597073,1756822823.034059
4.3501514868,-1.375872995,8.9635134596,-0.1747074581246324,-0.09773843811168245,-0.6585127267774605,1756822823.042018
4.4243289874,-1.339980656,8.8343010392,-0.16004669240788003,-0.1466076571675237,-0.6548475353482724,1756822823.049999
4.4554356812,-0.9284151688,8.640482408599999,-0.18692476288859272,-0.12583823906879116,-0.6682865880419212,1756822823.057982
4.4315074552,-0.5718846014,8.602197247,-0.12583823906879116,-0.11972958668681101,-0.6438519436074157,1756822823.066005
4.5774696338,-0.203389921,8.800801522799999,-0.15027284859671178,-0.09529497715889039,-0.6866125277345693,1756822823.073997
4.618147618,0.09332008139999999,8.913264185,-0.1514945790731078,0.0024434609527920616,-0.6768386664701084,1756822823.081972
4.6755753604,0.3517449222,8.85344362,-0.11606439525762292,0.05742133239061344,-0.6805039102591741,1756822823.090059
4.66600407,0.44027935839999993,8.5734833758,-0.10873401239924674,0.1111774733520388,-0.6743952055173165,1756822823.097994
4.6253260858,0.42352960019999997,8.0949188558,-0.019547687622336492,0.16615534478986016,-0.6194173864393725,1756822823.106001
4.5535414078,0.5264209719999999,7.791030385599999,0.012217304763960306,0.21013764194011728,-0.6194173864393725,1756822823.114028
4.4051864065999995,0.813559684,7.8867432896,0.05375614096142535,0.22602013813326566,-0.5791002458117185,1756822823.121975
4.689932295999999,1.3567304141999998,8.154739420799999,0.08918632477691024,0.26511551337793865,-0.5839871502640102,1756822823.129988
4.6683968926,1.7060825137999998,8.291130309,0.0757472895365539,0.37384952577718544,-0.5864305937635097,1756822823.138028
4.682753828199999,2.2037896146,8.303094422,0.1356120828799594,0.455705485149012,-0.6059783337457239,1756822823.146020
4.7760739096,2.5890340532000002,8.2241312762,0.09285151620609834,0.5681046540708617,-0.700051580428218,1756822823.154052
4.7665026192,2.9336005076,7.953742322399999,0.1111774733520388,0.653625822325169,-0.6805039102591741,1756822823.162025
4.713860522,3.314059301,7.731209820599999,0.1551597705022959,0.6890559886873613,-0.7305948423381188,1756822823.170049
4.7042892316,3.5700913191999994,7.865207886199999,0.16126842288427606,0.7049384674272172,-0.7721336959888764,1756822823.177998
4.6755753604,3.8572300312,7.9011002251999995,0.18081611050661253,0.7098253718795088,-0.7159340591680741,1756822823.186006
4.6396830214,3.936193177,7.9657064354,0.17226399717184032,0.6817256232822776,-0.801455157609211,1756822823.194029
4.761716974,3.9553357578,8.0805619202,0.14172073526193954,0.6756169359937125,-0.719599250597262,1756822823.202028
4.8526442327999995,3.8093735792,8.3437724062,0.1710422666954443,0.6499606483492734,-0.7489207820307667,1756822823.210029
4.8646083458,3.6059836581999996,8.3940216808,0.14905111812031574,0.6230825604152682,-0.6389650566084165,1756822823.218042
4.773681087,3.2973095427999994,8.4418781328,0.16126842288427606,0.613308681697515,-0.5607743061190706,1756822823.226079
4.5990050371999995,3.2327033326,9.064012008799999,0.13439035240356337,0.6157521426503069,-0.5302310093025848,1756822823.234016
4.467399794199999,3.4002009145999996,9.887142983199999,0.079412480965742,0.6499606483492734,-0.4373794930964865,1756822823.241996
4.1778682596,3.5413774479999995,10.348957744999998,0.03298672286269283,0.6853907972581733,-0.43249260609748735,1756822823.250040
3.7830525305999996,3.9625142255999997,10.640882102199999,-0.09529497715889039,0.698829849951822,-0.339641054984804,1756822823.258034
3.3332018818,4.2257247116,10.8107725068,-0.1942551457469689,0.7110471721690749,-0.35552358608453744,1756822823.265991
2.799602442,4.402793584,10.545169198199998,-0.3274237676741362,0.6560692658246685,-0.3518583772020568,1756822823.273999
2.4358934068,4.0582271296,10.1671032274,-0.3457497073667842,0.6267477343911637,-0.38117990863556156,1756822823.281969
2.1224336461999997,4.041477371399999,9.9373922578,-0.36896258641830876,0.6230825604152682,-0.4654793115068877,1756822823.290007
1.7132609816,4.1563328562,10.0929257268,-0.39584067435231396,0.6194173864393725,-0.4691444854827833,1756822823.297997
1.2658031554,4.3597227772,10.5954184728,-0.42149701435663056,0.6829473537586737,-0.5900958375525753,1756822823.306070
0.7345965381999999,4.2616170506,11.196016945399998,-0.5766568023122189,0.7476990515543709,-0.6255260039147678,1756822823.314019
0.39720855159999996,3.7615171272,11.464013076599999,-0.6389650566084165,0.8295549760196123,-0.7611381042480195,1756822823.322037
0.057427742399999995,3.0029923629999997,10.9136638786,-0.6658431445424218,0.7855726614160627,-0.7745771394883759,1756822823.330060
-0.0215354034,2.4693929231999996,10.042676452199998,-0.6695083185183173,0.6658431445424218,-0.7684684521998107,1756822823.337989
0.11006983959999998,2.1559331626,9.2267239456,-0.5937610115284709,0.4850270165825167,-0.7525859560066623,1756822823.346171
0.3780659708,2.4119651807999998,9.126225396399999,-0.5473352708787143,0.3249803241746367,-0.6487388480597073,1756822823.354019
0.6628118601999999,2.51246373,9.410971285799999,-0.558330827712986,0.24434609527920614,-0.5827654197876142,1756822823.362012
0.9619146851999999,1.8975083218,9.889535805799998,-0.5021312257987686,0.23335052099164186,-0.48258353817643207,1756822823.370004
1.1270194446,1.31605243,10.2317094376,-0.46792275500638725,0.24190263432641407,-0.40317105721069013,1756822823.378000
1.0863414604,1.2131610581999999,9.9732845968,-0.3726277953007894,0.2541199390903744,-0.2919935838586513,1756822823.386038
0.9068797653999999,1.1030912186,9.2219383004,-0.33597588100890846,0.2516764781375823,-0.2345722514680379,1756822823.394049
0.8590233133999999,0.705882667,8.8199441036,-0.29565879274113194,0.1954768762233649,-0.1466076571675237,1756822823.402005
0.8638089586,0.3756731482,9.080761767,-0.21746802479849348,0.158824961931484,-0.07452555906015787,1756822823.410029
0.825523797,0.062213387599999996,9.6000042712,-0.2272418686096617,0.13316862192716733,0.039095375244672985,1756822823.418032
0.6771687958,-0.2009970984,9.9086783866,-0.1710422666954443,0.11728612573401895,0.09407324668249435,1756822823.426025
0.5670989562,-0.3924229064,10.006784113199998,-0.1747074581246324,0.09040805525330627,0.12461650859239512,1756822823.434042
0.5934200048,-0.5192425042,9.954142015999999,-0.2064724505109292,0.0879645943005142,0.14049900478554353,1756822823.442037
0.6484549246,-0.48335016519999996,9.9469635482,-0.16126842288427606,0.11362093430483085,0.12095131716320703,1756822823.450022
0.5647061336,-0.30149564759999997,10.033105161799998,-0.16493361431346412,0.12583823906879116,0.09896016858807849,1756822823.458062
0.5264209719999999,-0.2584248408,9.9086783866,-0.13805554383275148,0.1270599695451872,0.079412480965742,1756822823.466036
0.5575276658,-0.20578274359999998,9.556933464399998,-0.1673770752662562,0.12461650859239512,0.05619960191421741,1756822823.474045
0.49531427819999996,-0.023928225999999997,9.1501536224,-0.07452555906015787,0.12095131716320703,0.024434609527920613,1756822823.482012
0.3397808092,0.19860427579999998,8.9204426528,0.029321531433504737,0.06841690667817772,0.06963863715457375,1756822823.490016
0.22013967919999997,0.6843472636,8.8965144268,0.09529497715889039,0.04153883619746504,0.007330382858376184,1756822823.498025
0.37088750299999995,0.9499505721999999,8.9635134596,0.18203784098300857,-0.008552113334772215,0.029321531433504737,1756822823.506013
0.5072783912,1.2394821068,9.111868460799998,0.2309070600388498,0.04153883619746504,0.06597344572538566,1756822823.514017
0.5982056499999999,1.4285150921999998,9.1549392676,0.32009338481576005,0.09773843811168245,0.009773843811168246,1756822823.522007
0.6843472636,1.663011707,9.121439751199999,0.3860668479944382,0.13072516097437528,0.058643062867009474,1756822823.530015
0.83748791,1.7419748528,9.0831545896,0.4520402762665313,0.12950343049797924,0.059864793343405505,1756822823.538007
0.9643075078,1.7419748528,9.1094756382,0.4642575810304917,0.1795943800302165,0.11484266478122689,1756822823.546027
0.9212367009999999,1.6558332392,8.992227330799999,0.4740314248416599,0.22479840765686965,0.1954768762233649,1756822823.554072
0.7082754896,1.6438691261999998,8.831908216599999,0.4422664324553631,0.2822197400474831,0.2993239667170275,1756822823.561998
0.4043870194,1.686939933,8.7720876516,0.4715879638888678,0.33719761148530447,0.42394049276271517,1756822823.570012
0.0095712904,1.7682959014,8.889335959,0.45814892864851153,0.3872885784708342,0.4789183642005365,1756822823.577997
-0.48095734259999995,1.8735800958,9.2315095908,0.5216788959678126,0.3872885784708342,0.6218608299388722,1756822823.586036
-0.993021379,2.2540388892,9.631110965,0.48380525119953566,0.36285396894291366,0.678060379493212,1756822823.594069
-1.5122638832,2.6943182475999996,10.2963156478,0.4459316064312587,0.34086282036778504,0.7232644245731576,1756822823.601995
-2.0913269523999998,3.2470602682,10.7677017,0.3616322035599326,0.29443706226473587,0.6939428756863605,1756822823.610050
-2.5339991334,3.5629128513999997,10.6767744412,0.23701571242082994,0.2516764781375823,0.6462954045602076,1756822823.618059
-3.0317062341999996,3.6107693034,10.159924759599999,0.2993239667170275,0.19669860669976094,0.6878342582109652,1756822823.626032
-3.1657042998,3.5964123677999997,9.5856473356,0.32009338481576005,-0.08307767239493008,0.5510004448546099,1756822823.634026
-2.7732813933999996,4.103690759,10.2987084704,0.3127630019573839,-0.2736676267127109,0.4227187273797341,1756822823.642026
-2.1511475173999997,4.721038989799999,11.2271236392,0.26145032194875056,-0.3420845333908886,0.3237585587916556,1756822823.650071
-1.2849457362,5.314458994599999,11.9688986452,0.10262536001726658,-0.2712241657599188,0.21868975527488949,1756822823.658005
-0.5575276658,5.563312545,12.3373933256,0.007330382858376184,-0.19792033717615698,0.17226399717184032,1756822823.666015
-0.0502492746,5.7643096434,12.311072277,-0.10995574287564276,-0.1881464933649887,0.0916297857297023,1756822823.674036
0.430708068,5.8432727892,12.011969451999999,-0.18448130193580065,-0.22113321622768156,0.1637118838370681,1756822823.682011
0.6269195211999999,5.8073804502,11.440084850599998,-0.23701571242082994,-0.3750712562535814,0.2504547476611863,1756822823.690024
0.8327022648,5.4364929472,10.356136212800001,-0.3066543495754037,-0.49724430389318447,0.30543261909900765,1756822823.698056
1.1461620253999998,4.8646083458,9.0831545896,-0.4019493441875866,-0.6450736740838118,0.33597588100890846,1756822823.706018
1.663011707,3.5222348671999995,8.279166196,-0.4092797270459628,-0.7305948423381188,0.30909779307490326,1756822823.714039
2.1367905817999997,2.5770699402,8.2121671632,-0.3225368457685521,-0.7244861375962612,0.2834414705238791,1756822823.722108
2.4047867129999996,2.4119651807999998,8.5854474888,-0.31642817593327943,-0.6279694648675597,0.28466318354698267,1756822823.730006
2.2875384056,2.5100709074,9.008977089,-0.2834414705238791,-0.4715879638888678,0.3127630019573839,1756822823.738009
2.0051853387999996,2.5292134882,9.3056870914,-0.26389378290154264,-0.3824016391119576,0.277332818141899,1756822823.746085
1.6390834810000001,2.3952154225999998,9.422935398799998,-0.26389378290154264,-0.33597588100890846,0.17715091907742445,1756822823.754025
1.4859428345999999,2.2588245344,9.5641119322,-0.22357667718047364,-0.28099800957108706,0.04276056667386108,1756822823.762012
1.543370577,1.9453647737999997,10.061819032999999,-0.19058995431778078,-0.29565879274113194,-0.0317649923862968,1756822823.770055
1.8400805794,1.519442351,10.5308122626,-0.23335052099164186,-0.3457497073667842,-0.16615534478986016,1756822823.778010
2.249253244,0.8638089586,10.6504533926,-0.26022859147235455,-0.3885102914939378,-0.24434609527920614,1756822823.786056
2.6009981662,0.040677984199999996,10.4111711326,-0.30909779307490326,-0.39828413530510604,-0.33597588100890846,1756822823.794047
2.775674216,-0.5910271822,9.9397850804,-0.3005456797401311,-0.34697143784318024,-0.4691444854827833,1756822823.802040
2.7732813933999996,-0.9595218625999999,9.6406822554,-0.2797762965479835,-0.28099800957108706,-0.49113563405791183,1756822823.810003
2.7014967154,-1.0193424275999998,9.607182738999999,-0.30298917559950816,-0.21868975527488949,-0.5644394800949663,1756822823.818006
2.5746771176,-1.0025926693999998,9.6981099978,-0.28099800957108706,-0.18203784098300857,-0.635299882632521,1756822823.826003
2.51246373,-0.9595218625999999,9.750752095,-0.30543261909900765,-0.17226399717184032,-0.700051580428218,1756822823.834018
2.5531417142,-0.9475577495999999,9.786644434,-0.29321529688175485,-0.19914206765255302,-0.775798869964772,1756822823.842032
2.7230321187999995,-0.825523797,9.7005028204,-0.3262020546510327,-0.23823744289722598,-0.8784242474353311,1756822823.850024
2.9934210726,-0.6963113766,9.580861690399999,-0.3457497073667842,-0.28099800957108706,-0.9016370915802706,1756822823.858012
3.3906296242,-0.5862415369999999,9.518648302799999,-0.3103195584578843,-0.277332818141899,-1.0005972950749342,1756822823.866038
3.7639099497999995,-0.46899322959999995,9.3631148338,-0.2822197400474831,-0.2345722514680379,-1.1215486122381413,1756822823.874067
4.1659041466,-0.2321037922,9.2769732202,-0.2504547476611863,-0.14905111812031574,-1.1985175624379212,1756822823.882001
4.465006971599999,-0.014356935599999999,9.037690960199999,-0.22479840765686965,-0.05131268000863329,-1.248608564330036,1756822823.890044
4.6325045536,0.3062812928,8.800801522799999,-0.19058995431778078,0.03787364476827695,-1.3060299141739418,1756822823.898039
4.721038989799999,0.6843472636,8.566304908,-0.1111774733520388,0.09773843811168245,-1.3610078030650556,1756822823.906018
4.7665026192,1.124626622,8.3940216808,-0.04276056667386108,0.15638150097869194,-1.4306464053130443,1756822823.914063
4.883750926599999,1.627119368,8.4681991814,0.0,0.19303341527057286,-1.4282029618135448,1756822823.922053
4.8909293944,2.2468604213999996,8.8343010392,0.10384709049366261,0.21624629432209744,-1.4624113976993414,1756822823.930028
4.8119662486,2.8809584103999994,9.3296153174,0.07696902001294993,0.2345722514680379,-1.37811195992143,1756822823.938024
4.5367916496,3.3188449462,9.810572659999998,0.05742133239061344,0.19914206765255302,-1.2449433903541403,1756822823.946023
4.1324046302,3.6466616424,9.9517491934,-0.025656340004316644,0.1466076571675237,-1.1301006906663285,1756822823.954043
3.6993037396,3.9553357578,9.7459664498,-0.05497787143782138,-0.014660765716752368,-0.9309586230137754,1756822823.962002
3.3834511563999996,4.2496529376,9.726823868999999,-0.07819075048934597,-0.19792033717615698,-0.7745771394883759,1756822823.970008
3.2159535744,4.654039957,10.013962581,-0.09651670763528643,-0.37629296927668493,-0.6084217946985158,1756822823.978017
3.2470602682,5.072783911999999,9.9828558872,-0.08307767239493008,-0.5167920089688135,-0.4263839362622147,1756822823.986026
3.2877382523999996,5.3048877041999996,9.7651090306,-0.09285151620609834,-0.5888741245294717,-0.33597588100890846,1756822823.994259
3.2566315585999996,5.4364929472,9.1070828156,-0.030543261909900768,-0.5082398956340413,-0.2797762965479835,1756822824.002012
3.1322047833999997,5.2019963324,8.6931245058,0.026878070480712675,-0.3750712562535814,-0.32864549815053223,1756822824.010011
3.0484559924,4.175475436999999,8.9467637014,-0.025656340004316644,-0.13194689145077132,-0.3909537524467298,1756822824.018026
2.8977081686,3.8668013215999997,9.2650091072,-0.16126842288427606,0.08429940287132612,-0.4459316064312587,1756822824.026022
2.7062823605999995,3.2015966387999995,9.0975115252,-0.4019493441875866,0.23212879051524585,-0.5351179486614615,1756822824.034022
2.321037922,2.3186450994,8.7553378934,-0.5204571829447091,0.28832839242946323,-0.4654793115068877,1756822824.042055
2.0673987264,1.8520446923999998,9.085547412199999,-0.339641054984804,0.20280725908174108,-0.3848450826114571,1756822824.050032
1.6366906583999998,2.2348963083999998,10.1001041946,-0.2431243648028101,0.04520402762665313,-0.3152064454568834,1756822824.058033
1.0743773474,3.0699913958,11.0979112188,-0.20158552860534507,-0.06475171524898962,-0.22968532956245377,1756822824.066000
0.5359922624,3.290131075,11.389835576,-0.28955012290585924,-0.10873401239924674,-0.22968532956245377,1756822824.074018
0.0741775006,3.3044880105999996,11.016555250399998,-0.4019493441875866,-0.05375614096142535,-0.2150245638457014,1756822824.081994
-0.7369893607999999,2.7349962317999994,10.698309844599999,-0.47647486834115943,-0.14782938764391973,-0.11239920382843482,1756822824.090002
-1.0815558152,1.8329021115999997,9.3607220112,-0.47525315531805595,-0.277332818141899,-0.0879645943005142,1756822824.098005
-1.4931213023999999,1.6462619487999999,8.5758761984,-0.48380525119953566,-0.43493604959698695,0.05497787143782138,1756822824.106047
-1.6414763036,0.7345965381999999,8.3318082932,-0.43493604959698695,-0.5888741245294717,0.06841690667817772,1756822824.113996
-1.5290136414,-0.107677017,8.774480474199999,-0.4422664324553631,-0.6633996137764597,0.16615534478986016,1756822824.121984
-1.3447663012,-0.30149564759999997,9.597611448599999,-0.4092797270459628,-0.6902777017104648,0.15393804002589986,1756822824.129992
-0.8949156524,-0.7896314579999999,10.325029519,-0.47525315531805595,-0.6951646759759265,0.15638150097869194,1756822824.137994
-0.3278166962,-0.6293123438,10.770094522599999,-0.4715879638888678,-0.6670648575655254,0.20525072003453315,1756822824.146038
0.0167497582,-0.562313311,10.7126667802,-0.5363396791378575,-0.6658431445424218,0.17348572764823636,1756822824.154017
0.3062812928,-0.4043870194,10.5188481496,-0.5839871502640102,-0.6475171175833112,0.18570303241219668,1756822824.161990
0.5742774239999999,-0.3613162126,10.1383893562,-0.6035348902462242,-0.6658431445424218,0.15760323145508795,1756822824.169989
0.7896314579999999,-0.28713871199999996,9.774680320999998,-0.6291911778906633,-0.6609561702769601,0.19058995431778078,1756822824.177993
0.9667003303999999,-0.30867411539999995,9.592825803399998,-0.5424483315198376,-0.6291911778906633,0.21868975527488949,1756822824.186034
1.1988041226,-0.3062812928,9.521041125399998,-0.5461135404023182,-0.5693263845472578,0.28466318354698267,1756822824.194088
1.3064811396,-0.2703889538,9.6143612068,-0.5033529562751646,-0.5167920089688135,0.3665191429188092,1756822824.201992
1.5816557386,-0.1651047594,9.7914300792,-0.4288273972150068,-0.4691444854827833,0.3848450826114571,1756822824.209990
1.7778671918,0.0263210486,10.013962581,-0.3750712562535814,-0.4532619892896349,0.5277875658030853,1756822824.218002
1.9118652573999997,0.1890329854,10.341779277199999,-0.3225368457685521,-0.4447098934081552,0.6927211626632569,1756822824.226011
2.2277178406,0.5216353268,10.626525166599999,-0.2858849140233787,-0.43249260609748735,0.6890559886873613,1756822824.234002
2.5531417142,0.9403792818,10.719845248,-0.2541199390903744,-0.3335324375094089,0.8674286556944744,1756822824.242013
3.134597606,1.2370892842,10.6672031508,-0.1881464933649887,-0.20891591146372127,0.8808676909348307,1756822824.250042
3.9553357578,1.2394821068,10.265208953999998,-0.1710422666954443,0.03420845333908886,0.9480628496833198,1756822824.258003
4.6205404406,1.0049854919999999,9.9565348386,-0.09285151620609834,0.47525315531805595,1.017701504291186,1756822824.266001
4.3286160834,0.8781658942,9.420542576199999,0.023212879051524585,0.8429940112599686,1.1117747509736804,1756822824.274025
3.3930224468,1.0145567824,8.7050886188,0.17837264955382048,1.1582005090767296,1.2449433903541403,1756822824.281979
2.63210486,0.6197410534,8.4610207136,0.3225368457685521,1.3060299141739418,1.1765265185825475,1756822824.289989
2.0315063874,0.7298108929999999,8.793623055,0.378736465136062,1.4318681357894405,0.9981537817622645,1756822824.298004
1.4548361408000001,1.1629117835999998,9.3702933016,0.36896258641830876,1.5406020783755172,1.0787880281109876,1756822824.306045
0.8015955709999999,1.5840485612,9.963713306399999,0.31642817593327943,1.696983684073964,0.7916813661579204,1756822824.314044
0.2895315346,1.7994025952000001,10.0570333878,0.2797762965479835,1.8289305406181504,0.7660249912470187,1756822824.322002
-0.083748791,2.333002035,9.9804630646,0.29321529688175485,1.9608773797090442,0.42027528388023455,1756822824.330010
-0.5910271822,2.727817764,9.643075077999999,0.2858849140233787,2.013411842553951,0.3457497073667842,1756822824.338017
-1.2059825903999999,3.2518459134,9.3056870914,0.3860668479944382,1.9596556666859408,0.3616322035599326,1756822824.346035
-1.6342978357999998,3.6514472876,9.6000042712,0.3347541505325124,1.7006488580498598,0.26145032194875056,1756822824.354021
-2.6297120374,4.0223347905999995,10.1024970172,0.10262536001726658,1.390329351951853,0.29565879274113194,1756822824.362039
-2.9623143788,3.840480273,10.880164362199999,-0.22113321622768156,1.0311405569848349,0.12095131716320703,1756822824.370017
-3.0843483314,3.4648071248,11.4185494472,-0.377514699753081,0.8564330639536175,0.06475171524898962,1756822824.378024
-3.1489545415999998,2.8163522002,11.186445655,-0.5937610115284709,0.538783157543942,-0.10140362954087054,1756822824.386061
-2.8618158295999994,2.5052852621999997,10.466206052399999,-0.7782423134642716,0.2064724505109292,-0.2504547476611863,1756822824.394014
-2.691925425,1.5840485612,9.6981099978,-0.7110471721690749,-0.2431243648028101,-0.2309070600388498,1756822824.402009
-2.2348963083999998,1.722832272,8.721838377,-0.718377520120866,-0.7049384674272172,-0.26145032194875056,1756822824.410130
-1.5290136414,1.5553346899999998,8.25523797,-0.7318165553612224,-1.0470230531779834,-0.19669860669976094,1756822824.418003
-0.6005984726,1.3710873497999998,8.4873417622,-0.6646214140660257,-1.295034252619915,-0.18936822384138474,1756822824.426014
0.30867411539999995,1.1318050897999998,9.219545477799999,-0.5705481150236538,-1.3878857688260133,-0.22846359908605773,1756822824.434047
1.0456634761999999,1.1150553316,9.9924271776,-0.5363396791378575,-1.4013248738795399,-0.26022859147235455,1756822824.442008
1.8113667082,0.9020941201999999,10.772487345199998,-0.5265658353266892,-1.3817771338973257,-0.2797762965479835,1756822824.450039
2.5986053435999996,0.7345965381999999,10.975877266199998,-0.5216788959678126,-1.342681793559238,-0.35552358608453744,1756822824.458046
3.2877382523999996,0.19381863059999999,10.911271056,-0.44104470197896706,-1.3084733576734413,-0.35552358608453744,1756822824.466060
3.7016965622,-0.007178467799999999,10.920842346399999,-0.37629296927668493,-1.2828170002158321,-0.4850270165825167,1756822824.474071
4.0845481781999995,-0.4283152454,10.961520330599999,-0.33231070703301285,-1.2034044668902126,-0.5448917750193372,1756822824.481997
4.3238304382,-0.8518448456,11.009376782599999,-0.24068090385001803,-1.0470230531779834,-0.6450736740838118,1756822824.490038
4.2855452766,-1.0935199281999999,11.0021983148,-0.19058995431778078,-0.8723155601467658,-0.6426302305843121,1756822824.498023
4.2520457602,-1.5337992865999999,10.9088782334,-0.1747074581246324,-0.6560692658246685,-0.7452556080548712,1756822824.506021
4.1730826144,-1.9166509026,10.5236337948,-0.11728612573401895,-0.4740314248416599,-0.7904596356815243,1756822824.514011
4.041477371399999,-2.2348963083999998,10.0522477426,-0.079412480965742,-0.36285396894291366,-0.8173377236155296,1756822824.522008
3.9672998708,-2.5100709074,9.8680004024,-0.0024434609527920616,-0.32986722862692824,-0.9028588220566666,1756822824.530066
3.9529429352,-2.775674216,9.7818587888,0.01710422666954443,-0.37018431689470477,-0.915076126820627,1756822824.538017
3.9912280968,-2.9551359109999997,9.7459664498,0.11239920382843482,-0.4117231705454623,-0.9309586230137754,1756822824.546048
3.9385859995999994,-2.8570301843999997,9.7722874984,0.1514945790731078,-0.4618141026244071,-0.955393267448281,1756822824.554012
3.9792639838,-2.5579273594,9.8991070962,0.1942551457469689,-0.5094616261104373,-0.9663887893759677,1756822824.562006
3.936193177,-2.225325018,10.2197453246,0.1954768762233649,-0.5522221578777133,-0.9443976757074242,1756822824.570009
3.9218362414,-1.7371892076,10.6025969406,0.1551597705022959,-0.6047566207226203,-0.917519587773419,1756822824.578031
3.8141592244,-1.4285150921999998,10.5834543598,0.09285151620609834,-0.6426302305843121,-0.8796459779117272,1756822824.586041
3.6466616424,-1.2275179938,9.8799645154,0.06719517620178168,-0.6841690842350697,-0.8710938296703699,1756822824.594021
3.4671999473999997,-1.0839486378,9.1022971704,0.08552113334772216,-0.7672467217234148,-0.9065239960325623,1756822824.602014
3.3882368015999997,-0.849452023,8.484948939599999,0.158824961931484,-0.813672479826464,-0.9126326833211273,1756822824.610040
3.4121650275999995,-0.47856452,8.252845147399999,0.21380283336930536,-0.9040805350797702,-0.973719207140929,1756822824.618023
3.6179477711999994,0.0023928226,8.204988695399999,0.30298917559950816,-0.9700540331650334,-0.9285151795142759,1756822824.626038
3.912264951,0.8422735552,8.2767733734,0.3726277953007894,-1.0812314890637797,-0.9443976757074242,1756822824.634009
4.240081647199999,2.1583259852,8.3820575678,0.4691444854827833,-1.1814134055815468,-0.915076126820627,1756822824.642054
4.582255279,3.3834511563999996,8.568697730599999,0.5241223918271897,-1.2522737383059315,-0.8246680715673207,1756822824.649998
4.7952164904,4.369294067599999,8.434699665,0.4105014400690663,-1.255938912281827,-0.6682865880419212,1756822824.658016
4.9100719752,4.6683968926,7.829315547199999,0.2223549467040776,-1.216843571943739,-0.3946189613292104,1756822824.666040
4.941178668999999,4.3477586642,7.214360138999999,-0.06841690667817772,-1.1239920731909332,-0.26145032194875056,1756822824.674026
4.9483571368,3.9864424515999994,6.582654972599999,-0.3616322035599326,-0.9578367109477806,-0.07696902001294993,1756822824.682029
4.9459643142,3.6634114006,5.8911292412,-0.596204472481263,-0.7342600163140145,0.039095375244672985,1756822824.690038
4.9842494758,3.2279176873999997,5.8241302084,-0.7318165553612224,-0.44837510229063576,0.19303341527057286,1756822824.698019
5.1014977832,2.8019952645999995,6.4271215036,-0.6646214140660257,-0.18203784098300857,0.34819320322616126,1756822824.706048
4.914857620399999,2.8570301843999997,7.140182638399999,-0.6035348902462242,0.08185594191853406,0.39706240482870997,1756822824.714063
4.4602213264,3.326023414,7.4273213504,-0.5473352708787143,0.37384952577718544,0.4667010419832837,1756822824.721989
3.7064822074,3.8333018052,7.381857720999999,-0.5338962181850654,0.6365215956556246,0.3518583772020568,1756822824.730022
2.9168507493999996,4.264009873199999,7.444071108599999,-0.6267477343911637,0.9688322328754674,0.3640756994193097,1756822824.738046
2.285145583,4.429114632599999,7.9322069189999995,-0.6585127267774605,1.2315042853006137,0.20158552860534507,1756822824.746027
1.7754743691999997,3.9672998708,8.8701933782,-0.7134906156685744,1.4514158757716547,0.0879645943005142,1756822824.754037
1.3663017045999999,2.1080767106,9.726823868999999,-0.6853907972581733,1.596801697743027,0.2150245638457014,1756822824.762033
0.7202396025999999,1.3782658176,10.755737587,-0.3848450826114571,1.6126842637493455,0.31642817593327943,1756822824.770032
-0.167497582,0.1722832272,11.0380906538,-0.18203784098300857,1.5796975408866527,0.3347541505325124,1756822824.777995
-1.0384850084,-1.112662509,11.306086785,0.003665191429188092,1.503950181536929,0.359188760060433,1756822824.786038
-1.5098710605999999,-1.938186306,11.7176522722,0.14172073526193954,1.3463469675351334,0.3494149162492648,1756822824.794025
-1.6103696097999998,-2.4071795355999996,12.1172536464,0.2223549467040776,1.0629055493711317,0.2907718533822553,1756822824.802040
-1.6725829974,-2.1463618722,12.2321091312,0.2309070600388498,0.679282109969608,0.3335324375094089,1756822824.810003
-1.5146567058,-2.0673987264,12.330214857799998,0.22479840765686965,0.23212879051524585,0.29688050576423547,1756822824.818019
-1.0815558152,-2.368894374,12.141181872399999,0.23701571242082994,-0.18081611050661253,0.3640756994193097,1756822824.826018
-0.7154539573999998,-2.4311077616,12.1579316306,0.2834414705238791,-0.5265658353266892,0.4495968153137393,1756822824.834033
-0.11724830739999999,-2.3976082452,12.452248810399999,0.29443706226473587,-0.7318165553612224,0.43371431912059094,1756822824.842123
0.5910271822,-2.3162522768,12.7800655066,0.2577851305195625,-0.8368853937845735,0.518013721991917,1756822824.849979
1.2993026717999998,-2.177468566,13.033704702199998,0.2528982086139784,-0.8491027160018264,0.5510004448546099,1756822824.858054
1.9716858224,-1.8975083218,13.411770673,0.23945917337362202,-0.8002334271328151,0.6548475353482724,1756822824.866000
2.6273192147999995,-1.5888342063999998,13.7515514822,0.18936822384138474,-0.7342600163140145,0.6939428756863605,1756822824.874033
3.1585258319999996,-1.339980656,14.1032964044,0.12461650859239512,-0.5729916283363234,0.8161159233259635,1756822824.882035
3.5006994637999997,-1.0815558152,14.1032964044,0.08063421144213803,-0.3946189613292104,0.8833111518876227,1756822824.890044
3.5796626096,-0.8901300072,13.3591285758,0.02076941809873252,-0.15271630954950383,0.9285151795142759,1756822824.898019
3.2255248647999997,-0.7657032319999999,12.177074211399999,0.007330382858376184,0.12095131716320703,0.9187413007965226,1756822824.906045
2.6895326024,-0.5120640364,10.916056701199999,-0.02199114857512855,0.35674531656093345,0.8906414998394138,1756822824.914054
2.2229321954,-0.39960137419999997,9.901499918799999,-0.023212879051524585,0.5546656537370904,0.8197811671150291,1756822824.922028
1.3854442854,0.1698904046,9.188438783999999,-0.023212879051524585,0.7635815477475192,0.7073819283800092,1756822824.930038
0.5910271822,0.9212367009999999,8.2504523248,-0.003665191429188092,0.973719207140929,0.5742133588127195,1756822824.938028
0.011964112999999998,2.1798613886,7.0755764282,0.14172073526193954,1.1887437709866304,0.48258353817643207,1756822824.946017
-0.7298108929999999,3.5198420446,5.7571311756,0.3017674451231121,1.4025466043559356,0.4276056667386107,1756822824.954067
-1.4979069475999998,4.2975093896,4.941178668999999,0.4019493441875866,1.472185189150632,0.32986722862692824,1756822824.962006
-2.2037896146,4.206582130799999,5.0273202826,0.3103195584578843,1.3829988643737217,0.1795943800302165,1756822824.970028
-2.4957139718,2.9072794589999997,6.2333028729999995,0.030543261909900768,1.2217304763960306,-0.004886921905584123,1756822824.978075
-2.3736800192,1.4333007374,7.573283528999999,-0.14172073526193954,0.9541714671587149,-0.2040289895581371,1756822824.986023
-2.3425733254,0.9595218625999999,8.2337025666,-0.2822197400474831,0.6462954045602076,-0.377514699753081,1756822824.994031
-2.0889341298,0.9547362173999999,8.3102728898,-0.3005456797401311,0.3457497073667842,-0.537561392160961,1756822825.002015
-1.7347963849999999,1.2394821068,8.858229265199999,-0.3262020546510327,0.05131268000863329,-0.7745771394883759,1756822825.010009
-0.8159525066,1.6342978357999998,9.427721044,-0.4288273972150068,-0.16493361431346412,-0.8051204013982768,1756822825.018018
0.0789631458,2.0530417908,9.6933243526,-0.359188760060433,-0.43493604959698695,-0.8246680715673207,1756822825.026010
1.0313065406,2.2564317118,9.9708917742,-0.32009338481576005,-0.7965682531569196,-0.6902777017104648,1756822825.034029
2.0123638066,2.3712871966,10.164710404800001,-0.3274237676741362,-1.0995574287564276,-0.614530412173911,1756822825.042003
2.8426732488,2.5986053435999996,10.456634761999998,-0.22846359908605773,-1.358564219939216,-0.4899139210348083,1756822825.049989
3.6179477711999994,2.703889538,10.8107725068,-0.24678955623199822,-1.538158617422725,-0.35796702958403703,1756822825.058022
4.3238304382,2.6967110702,10.9902342018,-0.21624629432209744,-1.594358236790235,-0.34452799434368064,1756822825.066022
4.9196432655999995,2.5196421977999996,10.951949040199999,-0.24068090385001803,-1.5894713497912358,-0.32986722862692824,1756822825.074023
5.4532427054,2.1631116304,11.124232267399998,-0.23701571242082994,-1.4782938240793195,-0.33231070703301285,1756822825.081991
6.1543397272,1.5601203352,11.736794853,-0.17348572764823636,-1.2999212792452541,-0.4667010419832837,1756822825.090028
6.838686990799999,0.9212367009999999,12.3206435674,-0.1356120828799594,-1.0531316706533784,-0.5448917750193372,1756822825.098155
7.312465865599999,0.4139583098,12.7609229258,-0.06597344572538566,-0.7672467217234148,-0.678060379493212,1756822825.106001
7.3005017526,0.13160524299999998,12.997812363199998,-0.09651670763528643,-0.4935791299172889,-0.6609561702769601,1756822825.114022
7.116254412399999,-0.09092725880000001,12.6915310704,-0.22357667718047364,-0.29321529688175485,-0.6976081194754261,1756822825.121981
6.731009973799999,-0.46660040699999994,12.043076145799999,-0.359188760060433,-0.14538592669112765,-0.6316346388434554,1756822825.129987
6.321837309199999,-0.8901300072,11.129017912599998,-0.5632177496185702,-0.059864793343405505,-0.5510004448546099,1756822825.137988
5.833701498799999,-1.5290136414,10.181460162999999,-0.6878342582109652,-0.026878070480712675,-0.5082398956340413,1756822825.146029
5.446064237599999,-2.249253244,9.343972252999999,-0.8197811671150291,-0.079412480965742,-0.4422664324553631,1756822825.154127
4.9555356046,-2.8283163131999998,8.398807326,-0.9236282052488142,-0.11728612573401895,-0.4092797270459628,1756822825.161999
4.6444686666,-3.4360932535999997,7.702495949399999,-0.9663887893759677,-0.2272418686096617,-0.4398229889558636,1756822825.170041
4.584648101599999,-3.8572300312,7.4608208668,-0.9285151795142759,-0.3860668479944382,-0.42394049276271517,1756822825.178023
4.6947179411999995,-3.9290147091999996,7.3220371559999995,-0.7855726614160627,-0.5436700619962336,-0.42027528388023455,1756822825.186059
5.0129633469999995,-3.7830525305999996,7.2885376395999995,-0.5277875658030853,-0.7134906156685744,-0.4129449010218584,1756822825.194010
5.2953164138,-3.218346397,7.3292156238,-0.24801128670839426,-0.858876507453117,-0.30909779307490326,1756822825.202065
5.584847948399999,-2.3258235671999996,8.0111700648,0.058643062867009474,-0.9529497366823189,-0.29565879274113194,1756822825.210004
5.800201982399999,-0.9523433948,8.5639120854,0.22113321622768156,-0.917519587773419,-0.3152064454568834,1756822825.218025
5.4532427054,0.9451649269999999,7.0971118315999995,0.24801128670839426,-0.858876507453117,-0.2712241657599188,1756822825.226035
5.254638429599999,1.8640088054,5.2689953651999994,0.05253441048502932,-0.698829849951822,-0.24190263432641407,1756822825.234012
5.1493542352,1.746760498,4.3740797127999995,-0.10873401239924674,-0.39584067435231396,-0.0879645943005142,1756822825.241999
5.1900322194,0.9643075078,4.2664026958,-0.1111774733520388,-0.03298672286269283,0.006108652381980153,1756822825.250018
5.374279559599999,0.23688943739999999,4.962714072399999,0.03298672286269283,0.359188760060433,0.21135937241651329,1756822825.258032
5.5920264161999995,0.0047856452,6.5659052144,0.2345722514680379,0.7391469033130135,0.39217546546983334,1756822825.266012
5.706881901,0.22731814699999997,8.9682991048,0.39217546546983334,1.1753046484798115,0.5791002458117185,1756822825.274024
5.8169517405999995,0.8327022648,11.84447187,0.5167920089688135,1.5894713497912358,0.7538076864830584,1756822825.281987
5.4029934308,1.43569356,13.892728015599998,0.4874704600820162,1.9486601447582539,0.9126326833211273,1756822825.289991
4.2975093896,2.2181465501999997,14.59621786,0.5070181302510602,2.221106040994569,1.0164797912680825,1756822825.298022
2.9982067178,2.8761727651999998,14.624931731199998,0.44837510229063576,2.4312437003879785,1.0421360789125218,1756822825.306023
1.4428720278,3.3355947043999996,14.124831807799998,0.3103195584578843,2.5460864000757906,0.9480628496833198,1756822825.314024
-0.0430708068,3.2685956715999995,13.1318104288,0.0879645943005142,2.682920143618976,0.8442157417363647,1756822825.321998
-1.6797614652,2.9599215562,12.4283205844,-0.1111774733520388,2.6621506906136583,0.73792519028991,1756822825.330007
-1.6414763036,2.0362920326,11.5669044484,-0.2736676267127109,2.5949554096921217,0.678060379493212,1756822825.338100
-1.9118652573999997,1.1413763802,10.4997055688,-0.23945917337362202,2.4617869622978796,0.7110471721690749,1756822825.345997
-1.9238293703999998,0.39481572899999995,9.6957171752,-0.18203784098300857,2.2333232933986515,0.7672467217234148,1756822825.354104
-2.0650059038,-0.05503491979999999,9.463613383,-0.04276056667386108,1.9804251196912581,0.8381071068076771,1756822825.362032
-2.1918255016,-0.3278166962,9.245866526399999,0.039095375244672985,1.7336355809125525,0.8148942103028599,1756822825.370011
-2.3282163898,-0.47138605219999996,9.3463650756,0.007330382858376184,1.5173892865904552,0.8063421318746727,1756822825.377995
-2.428714939,-0.5718846014,9.889535805799998,-0.05619960191421741,1.3011430097216503,0.7049384674272172,1756822825.386093
-2.667997199,-0.6293123438,10.408778309999999,-0.26389378290154264,1.1459832566726469,0.6291911778906633,1756822825.394014
-3.4289147858,-0.6053841178,10.1886386308,-0.4874704600820162,0.9676105198523638,0.5632177496185702,1756822825.402022
-3.5916267226,-1.2011969452,9.1716890258,-0.5412266010434417,0.9187413007965226,0.42394049276271517,1756822825.410151
-3.7112678526,-1.8185451759999998,7.1808606226,-0.4874704600820162,0.8576547769767211,0.3824016391119576,1756822825.417999
-3.7471601916,-2.4478575198,5.3336015754,-0.24068090385001803,0.7476990515543709,0.28955012290585924,1756822825.426059
-3.5102707541999996,-3.0029923629999997,4.2975093896,-0.04276056667386108,0.5216788959678126,0.21868975527488949,1756822825.434047
-3.1800612353999997,-3.4648071248,5.0081777018,0.18081611050661253,0.34819320322616126,0.1832595714594046,1756822825.442001
-2.8283163131999998,-3.7399817237999997,7.9058858704,0.4642575810304917,0.30421088862261164,-0.0158824961931484,1756822825.450012
-2.6967110702,-3.7998022887999996,11.6985096914,0.6243042734383717,0.45937065912490754,-0.1942551457469689,1756822825.458099
-2.763710103,-3.2877382523999996,14.385649471199999,0.7513642255302664,0.6096435077216193,-0.3885102914939378,1756822825.466023
-3.6514472876,-2.4574288101999997,14.816357539199998,0.6756169359937125,0.6719517620178169,-0.6817256232822776,1756822825.474546
-3.7639099497999995,-1.5361921092,14.7182518126,0.6206390994624761,0.5742133588127195,-0.8466591852358643,1756822825.482040
-3.9649070481999997,-0.693918554,13.4045922052,0.5302310093025848,0.26878070480712674,-1.0922270808046364,1756822825.490030
-3.852444386,-0.4283152454,11.588439851799999,0.4276056667386107,-0.1624901533606721,-1.274264921787645,1756822825.498021
-3.0460631698,-0.2967100024,10.4063854874,0.6035348902462242,-0.6646214140660257,-1.3548990459633206,1756822825.506103
-1.9980068709999999,0.44027935839999993,10.700702667199998,0.6450736740838118,-1.3060299141739418,-1.3634512640178478,1756822825.514039
-0.6388836341999999,1.3830514628,11.0715901702,0.5595525756426746,-1.984090293667154,-1.4110986653308304,1756822825.521999
0.38524443859999996,2.0123638066,10.078568791199999,0.4544837546726159,-2.6169467153468826,-1.3463469675351334,1756822825.530005
1.1078768638,2.3521446158,8.530412569,0.3005456797401311,-3.1337387243156964,-1.1178834382622458,1756822825.538041
1.8448662246,2.5674986497999996,7.080362073399999,0.21135937241651329,-3.513696972288032,-0.9089675093452318,1756822825.546056
2.1487546948,3.0173492986,5.8839507734,-0.012217304763960306,-3.788586329477139,-0.6255260039147678,1756822825.554014
3.1106693799999996,2.7421746995999996,5.4173503664,-0.2309070600388498,-3.7372736145619205,-0.4251622232391112,1756822825.562050
3.8117664017999995,2.6105694566,5.5585268997999995,-0.37018431689470477,-3.420845333908886,-0.22968532956245377,1756822825.570008
4.5535414078,2.4526431649999996,6.065805290999999,-0.4654793115068877,-2.9297096998509744,-0.058643062867009474,1756822825.578043
5.204389154999999,2.3832513096,6.800401829199999,-0.44104470197896706,-2.340835505508332,0.05009094953223726,1756822825.586006
5.682953674999999,2.2444675987999996,7.2598237683999995,-0.4251622232391112,-1.8093828006359365,0.079412480965742,1756822825.594012
5.8313086762,2.0386848551999996,7.2789663492,-0.3824016391119576,-1.3255775145298156,0.11362093430483085,1756822825.602019
5.7834522242,1.7611174335999997,6.994220459799999,-0.20891591146372127,-0.9395107712551326,0.0916297857297023,1756822825.610049
5.737988594799999,1.6390834810000001,7.006184572799999,-0.14538592669112765,-0.635299882632521,0.10873401239924674,1756822825.618025
5.7499527077999995,1.423729447,7.348358204599999,0.035430183815484885,-0.35796702958403703,0.12339477811599911,1756822825.626043
5.539384319,0.8997012976000001,7.2287170746,0.04642575810304917,-0.06719517620178168,0.19058995431778078,1756822825.634044
5.120640363999999,0.1651047594,7.2095744938,0.16126842288427606,0.22479840765686965,0.2357939819444339,1756822825.642025
4.797609313,-0.4211367776,7.0085773954,0.2736676267127109,0.4495968153137393,0.2993239667170275,1756822825.650010
4.6755753604,-0.8279166196,7.0253271536,0.3995058483282095,0.5473352708787143,0.2907718533822553,1756822825.658042
5.022534637399999,-1.2921242039999998,8.5112699882,0.5277875658030853,0.5497787143782138,0.40805796166298175,1756822825.666018
5.905486176799999,-1.8161523534,11.8181508214,0.7147123461449705,0.4422664324553631,0.5216788959678126,1756822825.673995
7.101897476799999,-2.0865413072,15.900306177,0.7941248096574199,0.24801128670839426,0.7892379052051284,1756822825.681993
7.8747791766,-2.1583259852,18.5036971658,0.7977899836333155,0.06475171524898962,1.059240305582066,1756822825.690031
7.7838519178,-1.746760498,18.742979425799998,0.5925392985053675,-0.03420845333908886,1.248608564330036,1756822825.698001
6.963113765999999,-1.232303639,18.494125875399998,0.2907718533822553,0.05742133239061344,1.4330898662658365,1756822825.706070
5.6327044004,-1.0145567824,18.3912345036,-0.11850785621041497,0.4630358680073881,1.3084733576734413,1756822825.714054
4.2783668087999995,-1.0217352502,17.467604979999997,-0.40561451816348215,1.0995574287564276,1.174082935456708,1756822825.722002
2.6823541345999997,-1.1078768638,16.3046931964,-0.5632177496185702,1.6554447606100364,0.9334020839665674,1756822825.730049
1.5457633995999998,-1.3471591237999998,14.536397294999999,-0.6511823613723768,2.1319197162176584,0.7538076864830584,1756822825.738007
0.5192425042,-1.4811571894,12.959527201599998,-0.659734439800564,2.43613060484027,0.6548475353482724,1756822825.746000
-0.36849468039999994,-1.4691930763999999,11.2199451714,-0.6890559886873613,2.482556415303197,0.5485569839018177,1756822825.754015
-1.4596217859999998,-1.3926227532,9.219545477799999,-0.6914994321868608,2.404365490280926,0.4043927876870862,1756822825.762024
-2.2061824372,-1.136590735,6.735795619,-0.7110471721690749,2.1978931270364592,0.24801128670839426,1756822825.770017
-2.6967110702,-0.8207381518,4.2759739862,-0.7342600163140145,1.8912387949143479,0.13683381335635544,1756822825.778018
-2.9862426047999997,-0.1363908882,2.4981067944,-0.679282109969608,1.5222761910427467,0.11728612573401895,1756822825.786005
-2.9599215562,0.4163511324,1.6654045296,-0.7024950239277177,1.1068877767082188,0.08185594191853406,1756822825.794040
-2.763710103,0.693918554,1.7300107398,-0.6951646759759265,0.7819074874401671,0.04520402762665313,1756822825.802054
-2.5579273594,0.7800601676,2.3258235671999996,-0.6462954045602076,0.4801400772236401,-0.047647488579445195,1756822825.810012
-2.3306092123999997,0.6963113766,2.7326034091999998,-0.6267477343911637,0.22357667718047364,-0.10384709049366261,1756822825.818053
-2.2301106632,0.6460621019999999,2.87138712,-0.4117231705454623,-0.028099800957108706,-0.14049900478554353,1756822825.826040
-2.1487546948,0.47138605219999996,2.727817764,-0.2309070600388498,-0.3066543495754037,-0.14905111812031574,1756822825.834084
-1.9908284031999999,0.1962114532,2.5770699402,0.0757472895365539,-0.5705481150236538,-0.06475171524898962,1756822825.841992
-1.5649059803999998,0.0334995164,3.2159535744,0.4422664324553631,-0.7305948423381188,-0.019547687622336492,1756822825.849992
-1.363908882,0.29910282499999996,4.977071007999999,0.7281513813853269,-0.8527678899777219,0.14416419621473162,1756822825.858001
-1.1964112999999998,0.9092725879999999,7.503891673599999,0.8991936306274786,-0.8393288372840731,0.20525072003453315,1756822825.866050
-1.124626622,1.339980656,9.9110712092,0.935845527466067,-0.6585127267774605,0.13805554383275148,1756822825.874018
-1.0839486378,1.411765334,12.026326387600001,0.9101892398216279,-0.4043927876870862,0.079412480965742,1756822825.882023
-0.8901300072,1.1676974288,14.0985107592,0.8833111518876227,-0.14172073526193954,-0.08307767239493008,1756822825.890007
-0.45942193919999996,0.8877371845999998,16.9124701368,0.9334020839665674,0.1637118838370681,-0.22113321622768156,1756822825.898028
-0.49770710079999997,0.4929214556,20.1978155666,0.877202447145765,0.5057964172279568,-0.3152064454568834,1756822825.906071
-1.6103696097999998,-0.7609175867999999,21.068802993000002,0.755029399506162,0.7342600163140145,-0.5766568023122189,1756822825.914053
-3.0604201054,-2.3617159061999997,18.2022015182,0.7318165553612224,0.73792519028991,-0.7892379052051284,1756822825.922007
-3.1034909122000003,-3.1824540579999994,17.7379939338,0.7476990515543709,0.5082398956340413,-0.9419542147546323,1756822825.930029
-1.8855442087999998,-3.2566315585999996,19.647466368599996,0.5925392985053675,-0.05375614096142535,-0.9419542147546323,1756822825.938024
-0.035892338999999995,-3.5078779316,20.161923227600003,0.37140608227768585,-0.8429940112599686,-0.7586946432952276,1756822825.946034
1.0815558152,-3.7519458367999996,18.8362995072,0.1747074581246324,-1.6811011355209382,-0.6414085001079161,1756822825.954080
2.141576227,-3.6562329327999996,16.4602266654,0.06230825429619756,-2.4923302242077803,-0.5607743061190706,1756822825.962010
3.2925238975999997,-3.0891339766,13.648660110399998,0.08185594191853406,-3.2779028332639655,-0.4422664324553631,1756822825.970058
4.3214376156,-1.9238293703999998,10.581061537199998,0.06230825429619756,-3.899763715562715,-0.40317105721069013,1756822825.978030
5.1541398804,-0.4139583098,7.7240313528,0.03787364476827695,-4.357912644211226,-0.14538592669112765,1756822825.986022
5.620740287399999,0.7872386353999999,5.412564721199999,-0.09773843811168245,-4.513072152914135,0.06230825429619756,1756822825.994055
6.003591903399999,1.351944769,4.0606199522,-0.2858849140233787,-4.357912644211226,0.2675589743307307,1756822826.002018
6.3098731962,1.447657673,3.0891339766,-0.4789183642005365,-3.9266416813236726,0.4886921905584123,1756822826.010006
6.340979889999999,1.387837108,2.1822542112,-0.5167920089688135,-3.2742377814611174,0.47036625086576433,1756822826.018051
6.0825550492,1.208375413,1.0504491214,-0.5510004448546099,-2.538756052123999,0.700051580428218,1756822826.026014
5.7475598852,1.1748758966,0.0191425808,-0.5473352708787143,-1.8252653666422547,0.6499606483492734,1756822826.034063
5.2426743166,1.3040883169999997,-0.6747759731999999,-0.5827654197876142,-1.032362287461231,0.7244861375962612,1756822826.041993
4.943571491599999,1.1389835575999998,-1.0528419439999999,-0.5729916283363234,-0.26022859147235455,0.698829849951822,1756822826.050007
4.3932222936,0.9403792818,-0.9595218625999999,-0.5729916283363234,0.45937065912490754,0.6976081194754261,1756822826.058001
3.8141592244,0.6891329088,-0.5718846014,-0.417831840380735,1.1557570481239374,0.613308681697515,1756822826.066021
3.1824540579999994,0.0981057266,0.014356935599999999,-0.29321529688175485,1.7629571123460572,0.39706240482870997,1756822826.074017
2.7206392962,-0.6867400862,0.8662017812,0.040317105721069016,2.219884310518173,0.2553416695667704,1756822826.082009
2.5483560689999996,-1.3184452526,2.2995025185999998,0.417831840380735,2.552194895378138,-0.0024434609527920616,1756822826.090021
2.9551359109999997,-1.5601203352,5.2833523008,0.9285151795142759,2.7623326769445953,-0.09773843811168245,1756822826.098000
3.4504501891999997,-0.6340979889999999,10.6193466988,1.3280209580293152,2.9431488049045007,-0.2223549467040776,1756822826.106044
3.649054465,1.4213366244,16.4315127942,1.4563027627706537,3.117856158309378,-0.2541199390903744,1756822826.114024
2.931207685,3.6251262389999996,19.1736874938,1.1838568665343387,3.2302554144976905,-0.277332818141899,1756822826.121992
2.9934210726,3.9529429352,20.0111754038,0.8466591852358643,3.0738737913459504,-0.09040805525330627,1756822826.130008
3.9864424515999994,3.7399817237999997,22.650458731599997,0.5338962181850654,2.4740042147019623,0.04520402762665313,1756822826.137988
3.5940195451999997,2.0147566292,19.570896045399998,0.48380525119953566,1.5723670533085214,0.1832595714594046,1756822826.145998
1.4835500119999998,0.4283152454,19.8652132252,0.5742133588127195,1.1887437709866304,0.13805554383275148,1756822826.154024
1.0671988796,-0.7609175867999999,20.9922326698,0.5216788959678126,1.1582005090767296,-0.008552113334772215,1756822826.161988
1.1150553316,-1.3088739621999999,21.547367513,0.3946189613292104,1.0995574287564276,-0.03665191429188092,1756822826.170008
1.0480562988,-1.651047594,20.5280250854,0.08674286382411818,0.8796459779117272,-0.08429940287132612,1756822826.177981
0.7657032319999999,-2.5100709074,18.180666114799998,-0.28955012290585924,0.679282109969608,-0.023212879051524585,1756822826.185992
0.5766702466,-2.8378876035999996,15.462419641199999,-0.6963864064523225,0.4520402762665313,0.0317649923862968,1756822826.194020
0.5742774239999999,-3.1034909122000003,13.064811396,-0.9089675093452318,0.3176499413162605,0.08429940287132612,1756822826.202167
0.5048855686,-3.1441688964,10.7940227486,-1.038470904936626,0.28832839242946323,0.13683381335635544,1756822826.209994
0.346959277,-2.7852455064,8.6165541826,-1.0482447662010868,0.3005456797401311,0.15271630954950383,1756822826.217986
0.0981057266,-2.2396819536,6.687939167,-0.9590584414241766,0.34697143784318024,0.18570303241219668,1756822826.226434
-0.2009970984,-1.7012968685999998,5.0464628634,-0.8503244290249299,0.4092797270459628,0.13439035240356337,1756822826.234015
-0.6460621019999999,-1.1294122672,3.8452659182,-0.7415904340789756,0.48136180770003606,0.08552113334772216,1756822826.242010
-0.9978070242,-0.6364908116,2.6392833278,-0.6120869686744114,0.5473352708787143,-0.0158824961931484,1756822826.249996
-1.3471591237999998,-0.2105683888,1.2945170266000001,-0.5131268000863328,0.558330827712986,-0.12583823906879116,1756822826.258012
-1.7180466267999999,0.13160524299999998,0.167497582,-0.3616322035599326,0.5497787143782138,-0.17348572764823636,1756822826.266048
-2.0506489682,0.2895315346,-0.825523797,-0.19058995431778078,0.4715879638888678,-0.2345722514680379,1756822826.274052
-2.3282163898,0.3900300838,-1.4739787215999998,0.029321531433504737,0.40317105721069013,-0.23823744289722598,1756822826.282012
-2.428714939,0.7776673449999999,-1.3902299305999999,0.1710422666954443,0.34452799434368064,-0.34452799434368064,1756822826.290020
-2.2636101795999997,1.3351950108,-0.1651047594,0.2577851305195625,0.2553416695667704,-0.4386012235728825,1756822826.297997
-1.6127624323999998,1.6845471104,2.2995025185999998,0.23945917337362202,0.1832595714594046,-0.5155702784924174,1756822826.306045
-1.2251251712,2.0985054202,5.216353267999999,0.22113321622768156,0.2553416695667704,-0.5363396791378575,1756822826.314015
-1.0049854919999999,2.2205393728,7.831708369799999,0.08674286382411818,0.31154127148098787,-0.6047566207226203,1756822826.322117
-1.0336993632,2.6249263922,10.7892371034,0.19792033717615698,0.37140608227768585,-0.5998696464571586,1756822826.330017
-0.8063812161999999,2.9718856691999997,13.540983093399998,0.24434609527920614,0.41905355340383854,-0.43371431912059094,1756822826.338021
-0.9643075078,3.2757741393999997,15.026925927999999,0.3262020546510327,0.3665191429188092,-0.21135937241651329,1756822826.346056
-1.5457633995999998,2.9838497821999996,15.7974148052,0.42149701435663056,0.3237585587916556,-0.13072516097437528,1756822826.354129
-1.7395820301999998,2.261217357,17.527425545,0.4251622232391112,0.34086282036778504,-0.10995574287564276,1756822826.362019
-1.8783657409999999,1.0121639597999998,19.3627204792,0.33597588100890846,0.29443706226473587,-0.014660765716752368,1756822826.370024
-2.7421746995999996,-1.9190437251999999,20.360527503399997,0.46792275500638725,0.3237585587916556,0.13316862192716733,1756822826.378005
-3.2925238975999997,-2.5627130046,20.1643160502,0.8405505677604691,0.4740314248416599,-0.12461650859239512,1756822826.386044
-2.4574288101999997,-4.6947179411999995,22.695922361,0.9957103208094725,0.44837510229063576,-0.048869219055841226,1756822826.394069
-2.1846470337999997,-3.3308090592,24.6867507642,1.1349875951186201,0.2712241657599188,-0.31642817593327943,1756822826.402062
-1.8400805794,-3.553341561,23.0859524448,0.8405505677604691,-0.2504547476611863,-0.09651670763528643,1756822826.410036
-1.124626622,-3.9194434188000002,19.680965885,0.3750712562535814,-1.0433578093889175,0.07452555906015787,1756822826.418040
-0.6221338759999999,-3.8213376921999997,16.4602266654,-0.12583823906879116,-1.947438414281858,0.058643062867009474,1756822826.426021
0.0885344362,-3.6658042231999994,13.646267287799999,-0.4801400772236401,-2.7207937534806677,-0.025656340004316644,1756822826.434044
1.328016543,-4.0821553556,10.923235169,-0.8478809855254303,-3.3292155481791834,-0.029321531433504737,1756822826.442043
2.1918255016,-3.6801611588,7.9106715156,-0.9187413007965226,-3.648087272331718,-0.1759291886010284,1756822826.450055
3.0005995404,-2.5986053435999996,5.4771709314,-0.8283332455432163,-4.042706233660929,0.1075122819228507,1756822826.458008
3.6346975294,-1.100698396,3.1776684127999997,-0.5839871502640102,-4.252843753427998,0.18570303241219668,1756822826.466017
4.0223347905999995,0.29910282499999996,1.651047594,-0.45814892864851153,-4.250400309928498,0.35674531656093345,1756822826.474056
4.3860438258,0.9044869427999999,0.71784678,-0.3420845333908886,-4.067140738469094,0.5338962181850654,1756822826.482047
4.5343988269999995,1.1796615417999998,0.1746760498,-0.3249803241746367,-3.754377771418295,0.5717698280467574,1756822826.490080
4.5296131818,1.411765334,-0.10289137179999999,-0.3457497073667842,-3.2962288427697835,0.6524040918487729,1756822826.497997
4.3764725354,1.4859428345999999,-0.4929214556,-0.318871654339364,-2.712241552879433,0.5253441048502933,1756822826.506019
4.1922251952,1.6103696097999998,-0.9164510557999999,-0.41905355340383854,-2.0683897314450648,0.6976081194754261,1756822826.514023
3.9146577735999997,1.7252250945999998,-1.1653046061999999,-0.4691444854827833,-1.3023647401980463,0.5277875658030853,1756822826.522019
3.3116664784,1.7706887239999998,-1.4931213023999999,-0.2541199390903744,-0.10995574287564276,0.5351179486614615,1756822826.529991
2.9192435719999996,1.9310078382,-0.7561319416,-0.6072000642221197,0.2528982086139784,0.35552358608453744,1756822826.538055
2.6009981662,0.44267218099999994,-0.1004985492,-0.21746802479849348,0.7244861375962612,0.1270599695451872,1756822826.546017
2.129612114,-0.6747759731999999,0.5024927459999999,0.05619960191421741,1.2241739198955304,-0.07819075048934597,1756822826.554023
2.6033909887999998,-0.813559684,2.3976082452,0.47525315531805595,1.9107865174432694,-0.6120869686744114,1756822826.562029
2.7900311515999996,-1.8376877567999998,5.347958511,1.0812314890637797,2.3359486010560406,-0.613308681697515,1756822826.570023
3.2853454297999996,-1.1294122672,11.1577317838,1.7238616498349217,2.482556415303197,-0.49235736453430784,1756822826.578006
4.6157547954,0.7561319416,17.4006059472,1.736079024412052,2.795319399807288,-0.7880161921820248,1756822826.586042
5.1637111708,2.51246373,19.542182174199997,1.5601498009044388,2.805093191258579,-0.48136180770003606,1756822826.594053
6.2165531148,2.1343977592,20.0590318558,1.3390166195833422,2.486221467106045,-0.3347541505325124,1756822826.602045
7.190431912999999,2.943171798,22.2149650184,1.2339477288001133,1.8289305406181504,0.012217304763960306,1756822826.610065
7.152146751399999,1.9884355805999998,20.2145653248,1.1313224211427242,0.9260717185614837,0.2748893571891069,1756822826.618000
4.953142782,1.6151552550000001,21.085552751199998,0.9663887893759677,0.5900958375525753,0.32986722862692824,1756822826.626062
4.4530428586,0.14356935599999998,22.640887441199997,0.6389650566084165,0.7489207820307667,0.2834414705238791,1756822826.634016
4.3812581806,-1.2394821068,22.719850587,0.24068090385001803,0.9395107712551326,0.14416419621473162,1756822826.642006
4.3334017286,-2.9168507493999996,20.937197749999996,-0.026878070480712675,1.0213666782670816,0.06475171524898962,1756822826.650014
3.7543386593999997,-4.077369710399999,17.637495384599998,-0.5766568023122189,0.9944886077863689,0.09773843811168245,1756822826.658007
3.0364918794,-5.003392056599999,14.675181005799999,-0.8344419328317815,0.973719207140929,0.24801128670839426,1756822826.666003
2.285145583,-5.2450671392,12.2608230024,-1.122770342714537,0.9773843811168246,0.18570303241219668,1756822826.674063
1.4045868661999998,-4.7425743932,10.315458228599999,-1.2424999294013483,0.9529497366823189,0.26633724385433466,1756822826.682008
0.981057266,-4.3860438258,8.738588135199999,-1.1557570481239374,0.9236282052488142,0.18081611050661253,1756822826.690032
0.2703889538,-3.4313076083999996,6.8817577976,-1.0201449652439782,0.9065239960325623,0.15393804002589986,1756822826.698057
-0.2321037922,-2.3617159061999997,5.0153561695999995,-0.8429940112599686,0.8735372731698694,0.11362093430483085,1756822826.706016
-0.7010970218,-1.4428720278,3.3451659948,-0.6927211626632569,0.795346540133816,-0.06230825429619756,1756822826.714049
-0.9236295236,-0.9212367009999999,2.0769700168,-0.5607743061190706,0.6951646759759265,-0.08918632477691024,1756822826.722008
-1.0791629926,-0.6293123438,0.7968099258,-0.44837510229063576,0.5534438883541094,-0.16859880574265224,1756822826.730050
-1.256231865,-0.2919243572,-0.5240281494,-0.2907718533822553,0.40561451816348215,-0.08552113334772216,1756822826.738007
-1.5457633995999998,0.1292124204,-1.6151552550000001,-0.14416419621473162,0.26633724385433466,-0.16859880574265224,1756822826.746047
-1.7802600144,0.7106683122,-2.069791549,0.02199114857512855,0.18203784098300857,-0.1759291886010284,1756822826.754092
-1.5385849318,1.519442351,-1.7300107398,0.09896016858807849,0.07696902001294993,-0.22357667718047364,1756822826.762006
-1.0959127508,1.5696916256,-0.2129612114,0.1759291886010284,-0.03420845333908886,-0.33597588100890846,1756822826.770000
-0.4259224228,1.5816557386,2.3186450994,0.24678955623199822,-0.039095375244672985,-0.2528982086139784,1756822826.778040
0.1579262916,2.0051853387999996,5.7092747236,0.378736465136062,0.09529497715889039,-0.3677408733952052,1756822826.786009
0.46899322959999995,2.6105694566,9.1740818484,0.5705481150236538,0.30543261909900765,-0.4007275788046055,1756822826.794021
0.6891329088,3.4528430117999998,12.658031553999999,0.7525859560066623,0.6328563518665589,-0.37018431689470477,1756822826.802058
0.5096712137999999,4.5750768112,16.1826592438,0.8210028975914251,0.9040805350797702,-0.15638150097869194,1756822826.810031
-0.8590233133999999,5.50349198,16.570296504999998,0.6096435077216193,0.735481729337118,0.1624901533606721,1756822826.818003
-1.6031911419999998,5.1876393968,16.498511826999998,0.6829473537586737,0.7880161921820248,0.19303341527057286,1756822826.826047
-1.1533404932,2.9120651042,17.7738862728,0.8087855753741724,0.9859365293581818,0.21746802479849348,1756822826.834017
-1.5002997702,0.7728816997999999,19.1928300746,0.8906414998394138,1.097113985256928,0.20891591146372127,1756822826.842029
-2.9192435719999996,-1.5744772707999999,19.728822336999997,1.0360274614371265,1.1423179430704111,0.07452555906015787,1756822826.850021
-3.4863425282,-3.2638100264,20.1882442762,1.0934488112810326,1.185078597010735,-0.12339477811599911,1756822826.858011
-3.2494530907999994,-3.5461630931999997,23.7104791434,1.05801857510567,1.112996463996784,-0.2993239667170275,1756822826.866025
-3.1848468806,-3.3547372851999997,24.5336101178,0.8735372731698694,0.7489207820307667,-0.3518583772020568,1756822826.874053
-2.5483560689999996,-3.3954152693999995,22.724636232199998,0.417831840380735,-0.006108652381980153,-0.27611108766550296,1756822826.882009
-2.2540388892,-3.5676984966,19.0660104768,-0.08552113334772216,-0.9615018849236762,-0.35796702958403703,1756822826.890033
-1.4189438017999998,-3.6897324492,15.586846416399998,-0.5534438883541094,-1.916895152371957,-0.29565879274113194,1756822826.898047
-0.26321048599999997,-3.816552047,12.3852497776,-0.7623598172711231,-2.863736271578881,-0.3494149162492648,1756822826.906064
1.0743773474,-3.5581272061999996,9.5904329808,-0.8576547769767211,-3.5821138440596245,-0.20158552860534507,1756822826.914031
2.2540388892,-2.823530668,7.214360138999999,-0.755029399506162,-4.111123105432521,-0.0879645943005142,1756822826.922009
3.1561330094,-1.7994025952000001,5.1900322194,-0.5839871502640102,-4.467868439446747,-0.06841690667817772,1756822826.930041
3.8261233374,-0.7609175867999999,3.493520996,-0.3665191429188092,-4.670675349462638,0.359188760060433,1756822826.938000
4.4051864065999995,-0.035892338999999995,2.4119651807999998,-0.2345722514680379,-4.620584487196862,0.34819320322616126,1756822826.946020
5.0201418148,0.33738798659999997,1.4835500119999998,-0.14172073526193954,-4.373795210217545,0.5424483315198376,1756822826.954076
5.431707302,0.6795616184,0.6340979889999999,-0.1942551457469689,-3.962071847685865,0.5803219762881145,1756822826.962039
5.563312545,0.71784678,-0.0023928226,-0.09529497715889039,-3.402519324403068,0.6621779007533561,1756822826.970000
5.2570312522,0.8542376682,-0.5312066172,-0.2272418686096617,-2.7317894150346946,0.7305948423381188,1756822826.978333
4.7521456836,1.1676974288,-0.9188438783999999,-0.3518583772020568,-2.051285452415643,0.7415904340789756,1756822826.986024
4.175475436999999,1.1102696864,-0.8590233133999999,-0.518013721991917,-1.2657127211864103,0.7269296683622233,1756822826.994039
3.5748769644,0.9523433948,-0.8015955709999999,-0.6853907972581733,-0.39584067435231396,0.6817256232822776,1756822827.002028
3.0604201054,0.693918554,-0.40917266459999996,-0.6658431445424218,0.3506366467256608,0.455705485149012,1756822827.010014
2.8498517165999995,-0.2225325018,0.3278166962,-0.5876523242399058,1.089783567491967,0.1637118838370681,1756822827.018007
2.7708885708,-1.100698396,1.1653046061999999,-0.21868975527488949,1.7739526342737442,-0.13683381335635544,1756822827.026023
2.9264220398,-1.9453647737999997,2.6057838114,0.1282817000215832,2.32617480960475,-0.40683623118658574,1756822827.033994
3.4360932535999997,-2.5698914724,5.446064237599999,0.860098237929513,2.6865851954218236,-0.6939428756863605,1756822827.042056
4.474578262,-2.4406790519999997,11.440084850599998,1.4379767532648355,2.8686231760311727,-0.6621779007533561,1756822827.050021
4.570291166,-1.495514125,17.9964187746,1.8289305406181504,2.863736271578881,-0.6707300315414209,1756822827.058040
3.984049629,1.9836499354,19.968104596999996,0.8576547769767211,1.05801857510567,-0.40317105721069013,1756822827.066039
3.1513473642,3.1369904286,21.044874767,1.6407840647064542,1.1753046484798115,0.010995574287564275,1756822827.074014
5.0656054442,3.1585258319999996,22.265214293,0.9407325017315287,1.11421819447318,-0.26878070480712674,1756822827.082045
5.946164161,2.4574288101999997,20.437097826600002,0.9798278246163241,0.359188760060433,0.33719761148530447,1756822827.089997
3.7423745464,1.2418749294,20.752950409799997,0.5204571829447091,0.2565634000431664,0.12095131716320703,1756822827.098015
3.6155549486,-0.48335016519999996,21.2386933976,0.1282817000215832,0.3860668479944382,0.18203784098300857,1756822827.106012
3.7399817237999997,-1.8831513862,20.5375963758,-0.14782938764391973,0.36041049053682905,0.18692476288859272,1756822827.114004
3.6897324492,-2.9383861527999997,18.8243353942,-0.4459316064312587,0.32131511529215606,0.1832595714594046,1756822827.121977
3.326023414,-3.7663027724,16.077375049399997,-0.678060379493212,0.3347541505325124,0.3225368457685521,1756822827.130021
2.5962125209999996,-3.9984065645999993,13.100703735,-0.9004153611038747,0.37140608227768585,0.3225368457685521,1756822827.137989
1.7180466267999999,-3.8620156764,10.4853486332,-0.9871582423812854,0.4422664324553631,0.30909779307490326,1756822827.145994
1.0265208954,-3.5724841418,8.4562350684,-0.9944886077863689,0.4850270165825167,0.18203784098300857,1756822827.154020
0.3924229064,-3.0699913958,6.7166530382,-0.8930849433389134,0.55710909723659,0.0879645943005142,1756822827.161987
-0.11964113,-2.5220350204,5.1014977832,-0.659734439800564,0.5839871502640102,-0.06230825429619756,1756822827.170028
-0.5766702466,-1.950150419,3.8237305147999994,-0.4874704600820162,0.5485569839018177,-0.16982053621904827,1756822827.177992
-0.7704888771999999,-1.423729447,2.8043880872,-0.3103195584578843,0.4288273972150068,-0.19181168479417682,1756822827.186008
-0.9044869427999999,-1.0241280728,1.8185451759999998,-0.11239920382843482,0.2553416695667704,-0.29321529688175485,1756822827.194008
-1.0456634761999999,-0.7489534737999999,0.8398807326,-0.03298672286269283,0.09040805525330627,-0.20280725908174108,1756822827.202013
-1.2203395259999998,-0.44267218099999994,-0.045463629400000004,0.10995574287564276,-0.09651670763528643,-0.16615534478986016,1756822827.210007
-1.256231865,-0.167497582,-0.7704888771999999,0.16859880574265224,-0.24801128670839426,-0.13439035240356337,1756822827.217990
-1.1964112999999998,0.3038884702,-1.0983055734,0.2907718533822553,-0.3262020546510327,-0.12217304763960307,1756822827.225989
-0.9499505721999999,0.550349198,-0.7226324252,0.36041049053682905,-0.41905355340383854,-0.09040805525330627,1756822827.234026
-0.39720855159999996,0.6675975054,0.8470592003999999,0.4129449010218584,-0.49113563405791183,-0.0916297857297023,1756822827.242014
0.2943171798,1.3088739621999999,3.3068808331999997,0.49235736453430784,-0.5265658353266892,-0.12950343049797924,1756822827.249977
1.2394821068,1.3902299305999999,6.206981824400001,0.537561392160961,-0.4642575810304917,-0.0439822971502571,1756822827.258020
1.6414763036,2.9048866363999997,9.611968384199999,0.7330382858376184,-0.29688050576423547,-0.15271630954950383,1756822827.266039
2.1248264688,4.1324046302,13.038490347399998,0.8307766890427158,-0.061086523819801536,-0.10140362954087054,1756822827.274040
2.3066809864,5.7451670626,16.0510540008,0.7122688851921785,0.2712241657599188,-0.0024434609527920616,1756822827.282006
1.8951154991999999,6.5300128754,17.5369968354,0.46792275500638725,0.5619960365954666,0.19303341527057286,1756822827.290028
1.3854442854,6.2380885182,18.281164664,0.20769418098732523,0.8442157417363647,0.19303341527057286,1756822827.297996
1.2801600909999997,3.7686955949999996,17.735601111199998,0.11606439525762292,0.9810495550927202,0.2993239667170275,1756822827.306093
1.0743773474,0.95712904,18.635302408799998,0.38973202197033374,1.0506882271538789,0.3066543495754037,1756822827.314033
0.7704888771999999,-2.3593230835999996,19.6761802398,0.7257079378858273,1.1459832566726469,0.17837264955382048,1756822827.322010
0.6149554081999999,-3.2757741393999997,21.174087187399998,1.0225884087434778,1.115439924949576,-0.04153883619746504,1756822827.330024
0.5383850849999999,-3.1992038162,23.5669097874,1.0983356982800316,1.0054841995272257,-0.12950343049797924,1756822827.338012
0.6340979889999999,-2.823530668,23.9090834192,0.9981537817622645,0.6267477343911637,-0.1270599695451872,1756822827.346024
0.2967100024,-2.6344976825999997,21.281764204399998,0.5546656537370904,-0.07330382858376185,-0.1392772743091475,1756822827.354049
0.29910282499999996,-2.7684957482,17.407784415,0.009773843811168246,-0.9896017033340774,-0.15638150097869194,1756822827.362030
0.9260223461999999,-3.026920589,14.155938501599998,-0.4422664324553631,-1.8692475939793418,-0.20525072003453315,1756822827.369997
1.9549360641999998,-2.9120651042,11.8037938858,-0.7977899836333155,-2.5668558530811083,-0.1881464933649887,1756822827.378034
2.8761727651999998,-2.5316063108,9.6000042712,-0.9456193887305278,-3.0665434433941594,-0.05497787143782138,1756822827.386020
3.6299118841999998,-1.7754743691999997,7.2574309458,-0.9040805350797702,-3.373197915142611,0.03665191429188092,1756822827.394042
4.113262049399999,-0.9906285563999999,5.197210687199999,-0.7904596356815243,-3.560122538404863,0.22479840765686965,1756822827.402004
4.414757697,-0.4642075844,3.5102707541999996,-0.678060379493212,-3.5466836951507243,0.43004911023811027,1756822827.410020
4.711467699399999,-0.2775674216,2.3186450994,-0.5338962181850654,-3.349985001184501,0.5668829410477582,1756822827.418011
4.8430729424,-0.2919243572,1.399801221,-0.3824016391119576,-3.0250047817296197,0.7293731118617228,1756822827.426091
4.869393991,-0.39720855159999996,1.1557333157999998,-0.318871654339364,-2.5925119487393298,0.8710938296703699,1756822827.434012
5.003392056599999,-0.2129612114,0.6484549246,-0.13194689145077132,-2.098932993354966,0.8833111518876227,1756822827.441993
4.778466732199999,0.0669990328,0.15553346899999998,-0.13439035240356337,-1.5467108354772523,0.8210028975914251,1756822827.450041
4.1850467274,0.3158525832,-0.08135596839999999,-0.1942551457469689,-0.8979719176043751,0.8735372731698694,1756822827.458027
3.6466616424,0.7226324252,-0.11724830739999999,-0.3494149162492648,-0.23823744289722598,0.7428121471020792,1756822827.466055
3.2159535744,1.040877831,-0.0263210486,-0.4874704600820162,0.41661010990433894,0.8087855753741724,1756822827.474060
2.644068973,0.8303094421999999,0.14356935599999998,-0.5742133588127195,1.0934488112810326,0.6658431445424218,1756822827.482079
2.1942183242,0.36370903520000003,0.7226324252,-0.5302310093025848,1.6456709691587459,0.4544837546726159,1756822827.490029
1.9094724347999998,-0.215354034,1.6031911419999998,-0.3335324375094089,2.1282545247884705,0.22113321622768156,1756822827.498013
1.9070796122,-1.4979069475999998,2.8402804261999997,0.05619960191421741,2.4678954576002265,0.006108652381980153,1756822827.506375
2.2923240507999996,-1.2945170266000001,5.5920264161999995,0.5216788959678126,2.6865851954218236,-0.20158552860534507,1756822827.514020
3.3308090592,-0.2464607278,11.440084850599998,0.8930849433389134,2.70246774397485,-0.2309070600388498,1756822827.522004
3.9696926934,0.9116654106,17.766707805,1.0555751316061706,2.5912903578892736,-0.3909537524467298,1756822827.530033
3.1393832512,2.2899312282,20.336599277399998,0.8124507493500679,2.5326472950222643,-0.4105014400690663,1756822827.538001
2.787638329,2.1918255016,19.070796121999997,0.6426302305843121,2.414139543531604,-0.34086282036778504,1756822827.546041
3.1896325257999996,1.926222193,18.699908619,0.44837510229063576,1.8325957145940461,-0.36529741244241315,1756822827.554056
4.721038989799999,1.0863414604,17.886348935,0.5546656537370904,0.8930849433389134,0.026878070480712675,1756822827.562004
4.1204405172,0.3517449222,18.6903373286,0.5632177496185702,0.33108894165003183,0.059864793343405505,1756822827.570028
3.7088750299999997,-0.8757730715999998,20.805592506999997,0.36896258641830876,0.2541199390903744,0.16126842288427606,1756822827.578059
4.2783668087999995,-1.686939933,21.030517831399997,0.14782938764391973,0.24556782575560218,0.20891591146372127,1756822827.586066
4.3405801963999995,-2.5028924396,19.6115740296,-0.058643062867009474,0.1795943800302165,0.2272418686096617,1756822827.594035
3.7902309983999998,-3.2853454297999996,17.0991102996,-0.36529741244241315,0.20280725908174108,0.31642817593327943,1756822827.602027
3.1872397032,-3.936193177,14.440684391,-0.5937610115284709,0.32986722862692824,0.3127630019573839,1756822827.610042
2.3258235671999996,-4.1706897918,12.1579316306,-0.8478809855254303,0.5253441048502933,0.3750712562535814,1756822827.618001
1.4428720278,-4.010370677599999,10.0905329042,-0.9285151795142759,0.7342600163140145,0.28710667940635975,1756822827.626017
0.6173482307999999,-3.5485559157999997,8.444270955399999,-0.9590584414241766,0.9260717185614837,0.13072516097437528,1756822827.634028
-0.083748791,-2.8426732488,6.69990328,-0.9101892398216279,1.0812314890637797,0.05253441048502932,1756822827.642001
-0.6005984726,-1.9716858224,5.0632126216,-0.7061601979036133,1.1435396735468073,-0.23212879051524585,1756822827.650072
-1.064806057,-1.1940184774,3.7160534977999995,-0.5839871502640102,1.095892254780532,-0.2907718533822553,1756822827.658024
-1.3543375916,-0.5312066172,2.6105694566,-0.42394049276271517,0.9749409376173249,-0.41661010990433894,1756822827.666054
-1.5170495283999998,0.0,1.8831513862,-0.19792033717615698,0.8112290363269643,-0.4398229889558636,1756822827.674011
-1.7347963849999999,0.3326023414,1.0289137179999999,-0.04276056667386108,0.6291911778906633,-0.4141666314982544,1756822827.682045
-1.8209379985999998,0.5670989562,-0.028713871199999998,0.10873401239924674,0.4447098934081552,-0.34086282036778504,1756822827.690011
-1.9429719511999999,0.9260223461999999,-0.8925228297999999,0.14905111812031574,0.28099800957108706,-0.339641054984804,1756822827.698032
-1.67497582,1.4069796888,-0.9667003303999999,0.21135937241651329,0.03787364476827695,-0.18570303241219668,1756822827.706172
-1.2059825903999999,1.7252250945999998,0.13160524299999998,0.14905111812031574,-0.19914206765255302,-0.1551597705022959,1756822827.713996
-0.5216353268,1.7419748528,2.4957139718,0.12339477811599911,-0.3103195584578843,-0.08552113334772216,1756822827.722031
0.040677984199999996,2.261217357,5.0464628634,0.12217304763960307,-0.37629296927668493,-0.07086036763096977,1756822827.730059
0.418743955,2.6368905052,7.8101729664,0.12217304763960307,-0.3530801076784529,-0.09040805525330627,1756822827.738006
0.5264209719999999,3.2135607518,10.963913153199998,0.2528982086139784,-0.18203784098300857,-0.0024434609527920616,1756822827.746017
-0.4211367776,-2.5818555854,12.8949209914,0.14538592669112765,0.06719517620178168,0.3262020546510327,1756822827.754030
-0.11964113,5.096712137999999,15.778272224399998,0.3665191429188092,0.18203784098300857,0.1710422666954443,1756822827.762014
-0.2943171798,5.1230331866,16.9627194114,0.2272418686096617,0.36285396894291366,0.013439035240356337,1756822827.770013
-0.0885344362,3.7710884175999997,17.2474653008,0.10140362954087054,0.5009095127756651,0.2541199390903744,1756822827.777994
-0.46660040699999994,0.8638089586,16.7689007808,0.20769418098732523,0.5974262029576589,0.19181168479417682,1756822827.786096
-0.5312066172,-2.3066809864,17.584853287399998,0.7024950239277177,0.7257079378858273,0.29321529688175485,1756822827.794035
-0.5335994398,-4.845465764999999,18.7381937806,1.3243557840534197,0.8234463410909246,0.029321531433504737,1756822827.802005
-1.1318050897999998,-4.953142782,21.1310163806,1.671327326616355,0.8405505677604691,-0.0158824961931484,1756822827.810044
-0.6053841178,-1.0695917021999999,23.980868097200002,0.9798278246163241,0.21258110289290932,-0.08429940287132612,1756822827.818026
-1.0217352502,-3.4624143021999996,23.9545470486,0.9883799728576813,0.0024434609527920616,0.09407324668249435,1756822827.826014
-0.8973084749999999,-4.1491543884,21.147766138799998,0.575435071835823,-0.6291911778906633,-0.1624901533606721,1756822827.834044
-0.5479563754,-4.2616170506,17.814564257,0.19181168479417682,-1.5137241126145595,-0.4117231705454623,1756822827.842000
0.39960137419999997,-4.0127635002,14.8905350398,-0.21746802479849348,-2.449569709893797,-0.22479840765686965,1756822827.850020
1.4691930763999999,-3.2638100264,12.3852497776,-0.45937065912490754,-3.243694519551217,-0.4141666314982544,1756822827.858043
2.4598216327999998,-2.021935097,9.9708917742,-0.577878532788615,-3.8741073581051055,-0.11239920382843482,1756822827.866020
3.2063822839999996,-1.399801221,6.886543442799999,-0.6829473537586737,-4.36524300961631,-0.09773843811168245,1756822827.874039
3.7998022887999996,-0.5718846014,5.1110690735999995,-0.613308681697515,-4.577824252135559,0.15271630954950383,1756822827.882055
4.3429730189999995,-0.203389921,3.397808092,-0.5803219762881145,-4.5546110589247695,0.3885102914939378,1756822827.890005
4.5367916496,0.2009970984,2.0554346134,-0.4447098934081552,-4.279721980988343,0.37140608227768585,1756822827.898010
4.9459643142,0.5742774239999999,0.9140582331999999,-0.4740314248416599,-4.015828006100583,0.5998696464571586,1756822827.906026
4.7665026192,-0.1698904046,0.3278166962,-0.3066543495754037,-3.4978144237350057,0.6377433261320204,1756822827.914050
4.833501652,-0.0215354034,0.0191425808,-0.3127630019573839,-2.967583309712666,0.6707300315414209,1756822827.922002
4.400400761399999,-0.1722832272,-0.2584248408,-0.27611108766550296,-2.3774875245199683,0.7305948423381188,1756822827.930029
3.8548372086,0.2919243572,-0.5072783912,-0.33597588100890846,-1.696983684073964,0.71715578964447,1756822827.938055
3.4073793824,0.38045879339999994,-0.6317051664,-0.3066543495754037,-1.0238101392198737,0.71715578964447,1756822827.946038
2.9623143788,0.9379864591999999,-0.5216353268,-0.21746802479849348,-0.24068090385001803,0.6743952055173165,1756822827.954017
2.8091737323999997,1.447657673,-0.3613162126,-0.24678955623199822,0.577878532788615,0.538783157543942,1756822827.962042
2.6943182475999996,1.3926227532,0.0191425808,-0.21746802479849348,1.276708382740437,0.2577851305195625,1756822827.970001
2.4813570361999995,0.8662017812,0.7393821834,-0.17837264955382048,1.8252653666422547,-0.03298672286269283,1756822827.978021
2.5076780847999998,0.07178467799999999,2.0075781614,0.09896016858807849,2.252871033380866,-0.30543261909900765,1756822827.986052
3.2015966387999995,-0.5096712137999999,4.558327053,0.48380525119953566,2.5167647290159456,-0.5338962181850654,1756822827.994021
4.7425743932,-0.275174599,9.9469635482,0.9590584414241766,2.653598472559131,-0.678060379493212,1756822828.002008
5.2833523008,1.2705888006000001,17.290536107599998,1.2999212792452541,2.945592248404,-0.6768386664701084,1756822828.010053
4.9866422984,2.416750826,21.1453733162,1.126435516690433,2.4837780236065456,-0.5021312257987686,1756822828.018036
4.8670011684,2.7684957482,20.336599277399998,0.972497476664533,2.2357668765244916,-0.6194173864393725,1756822828.026003
5.7954163372,2.5962125209999996,19.659430481599998,0.801455157609211,1.7018705885262557,-0.2993239667170275,1756822828.034102
6.8578295716,1.7611174335999997,17.9294197418,0.813672479826464,0.7012732934513216,-0.08674286382411818,1756822828.041998
5.876772305599999,1.411765334,19.094724348,0.7977899836333155,-0.009773843811168246,0.1795943800302165,1756822828.050039
5.347958511,0.26321048599999997,20.9204479918,0.4618141026244071,-0.10629055144645466,0.15393804002589986,1756822828.057996
6.0729837588,-0.705882667,20.922840814399997,0.17837264955382048,0.0158824961931484,0.1270599695451872,1756822828.066025
6.2859449702,-1.8711872732,19.190437252,-0.05375614096142535,0.07208209810736581,0.1551597705022959,1756822828.074012
5.8313086762,-2.8450660714,16.8287213458,-0.3860668479944382,0.26145032194875056,0.16004669240788003,1756822828.081984
5.1996035098,-3.6131621259999998,14.356935599999998,-0.6267477343911637,0.4960225734167885,0.24190263432641407,1756822828.089995
4.369294067599999,-4.151547211,12.2536445346,-0.8894197693630179,0.8112290363269643,0.31642817593327943,1756822828.097995
3.2015966387999995,-4.2855452766,10.504491213999998,-0.9260717185614837,1.150870143671646,0.3237585587916556,1756822828.105997
1.986042758,-3.960121403,9.080761767,-0.9285151795142759,1.3915510649749565,0.278554548618295,1756822828.114020
0.9068797653999999,-3.3595229304,7.5589265934,-0.8405505677604691,1.5662584358331264,0.16126842288427606,1756822828.122021
-0.057427742399999995,-2.5268206656,5.8600225474,-0.6621779007533561,1.6456709691587459,0.0158824961931484,1756822828.129989
-0.7441678285999999,-1.7300107398,4.400400761399999,-0.4288273972150068,1.6151277072488452,-0.1356120828799594,1756822828.137987
-1.0432706536,-1.232303639,3.2374889777999996,-0.23701571242082994,1.474628650103424,-0.2150245638457014,1756822828.146022
-1.2921242039999998,-0.7561319416,2.3114666315999997,-0.039095375244672985,1.3096950881498375,-0.29565879274113194,1756822828.154111
-1.6175480776,-0.6484549246,1.4141581565999999,0.11484266478122689,1.112996463996784,-0.2504547476611863,1756822828.161998
-1.9070796122,-0.490528633,0.3326023414,0.35674531656093345,0.9053022655561662,-0.21868975527488949,1756822828.170033
-2.0578274359999997,-0.1746760498,-0.6364908116,0.5119050696099369,0.6670648575655254,-0.14905111812031574,1756822828.178021
-1.9669001771999999,0.12442677519999999,-0.8015955709999999,0.6548475353482724,0.4288273972150068,-0.07452555906015787,1756822828.186063
-1.6319050132,0.5934200048,0.1770688724,0.6719517620178169,0.13072516097437528,-0.07819075048934597,1756822828.194014
-1.0815558152,0.7609175867999999,2.2755742926,0.635299882632521,-0.09529497715889039,0.014660765716752368,1756822828.202022
-0.5862415369999999,1.3471591237999998,4.713860522,0.596204472481263,-0.2907718533822553,0.014660765716752368,1756822828.210075
-0.31106693799999996,1.5936198516,6.5635123918,0.5436700619962336,-0.3946189613292104,0.12095131716320703,1756822828.217987
-0.18664016279999998,2.8402804261999997,9.5904329808,0.5876523242399058,-0.45937065912490754,0.07819075048934597,1756822828.226002
0.4163511324,4.618147618,12.947563088599999,0.5485569839018177,-0.3066543495754037,0.06841690667817772,1756822828.234040
0.47377887479999997,5.8552369022,15.591632061599999,0.4092797270459628,-0.08552113334772216,0.07819075048934597,1756822828.242009
0.45942193919999996,6.2189459374,16.826328523199997,0.158824961931484,0.21135937241651329,0.09651670763528643,1756822828.250058
0.6269195211999999,4.5200418914,16.342978358,-0.040317105721069016,0.4153883445213579,0.21624629432209744,1756822828.258008
0.3493520996,0.9643075078,15.986447790599998,0.2345722514680379,0.5400048880203381,0.3127630019573839,1756822828.266007
0.0334995164,-1.7036896912,17.3575351404,0.7977899836333155,0.5546656537370904,0.377514699753081,1756822828.274051
-0.3302095188,-3.7543386593999997,20.2169581474,1.3060299141739418,0.47525315531805595,0.277332818141899,1756822828.281990
0.09571290399999999,-3.0915267991999995,23.174486881,1.6322318641052196,0.339641054984804,0.039095375244672985,1756822828.289997
0.0430708068,-1.1389835575999998,24.751356974399997,1.5882496193148399,0.19914206765255302,-0.09040805525330627,1756822828.298007
0.09092725880000001,0.040677984199999996,24.363719713200002,1.3109168186262334,-0.07452555906015787,-0.16004669240788003,1756822828.306006
-0.047856451999999994,-0.3924229064,21.3846555762,0.6829473537586737,-0.7538076864830584,-0.10629055144645466,1756822828.314079
0.37088750299999995,-0.8446663778,18.1208455498,0.04642575810304917,-1.587027888838444,-0.09407324668249435,1756822828.322051
1.2801600909999997,-1.3926227532,14.9886407664,-0.4007275788046055,-2.3909266295734946,-0.15393804002589986,1756822828.330012
2.5076780847999998,-1.6247265453999997,12.1962167922,-0.7916813661579204,-3.086091305549421,-0.10384709049366261,1756822828.338084
4.3812581806,-3.5605200288,8.169096356399999,-0.7586946432952276,-3.34265465323271,-0.07208209810736581,1756822828.346008
4.570291166,-0.7944171031999999,6.884150620199999,-1.089783567491967,-3.776368815273668,0.1466076571675237,1756822828.354031
5.120640363999999,0.19860427579999998,4.3429730189999995,-0.8808676909348307,-3.6651914291880923,0.1832595714594046,1756822828.362052
6.125625855999999,0.38524443859999996,3.1561330094,-0.7977899836333155,-3.3292155481791834,0.32986722862692824,1756822828.370031
6.3936219871999995,0.3326023414,1.9573288867999998,-0.6169738556734105,-2.938261900452209,0.5876523242399058,1756822828.378002
6.173482308,-0.5407779076,1.1341979124,-0.3420845333908886,-2.4923302242077803,0.5632177496185702,1756822828.386023
5.8169517405999995,-0.8781658942,0.7633104094,-0.0916297857297023,-2.0720549054209605,0.7562511997957281,1756822828.394085
5.4532427054,-0.8470592003999999,0.6340979889999999,0.013439035240356337,-1.6236797856770324,0.7464773210779748,1756822828.402002
4.857429878,-0.550349198,0.44027935839999993,0.18081611050661253,-1.1117747509736804,0.700051580428218,1756822828.410014
4.3477586642,-0.0981057266,0.2727817764,0.19058995431778078,-0.49480084294039245,0.6866125277345693,1756822828.418061
3.7495530142,0.11964113,0.3062812928,0.13194689145077132,0.08307767239493008,0.6365215956556246,1756822828.426039
3.2590243811999997,0.6747759731999999,0.5048855686,0.025656340004316644,0.6487388480597073,0.5742133588127195,1756822828.434041
2.9288148623999994,0.9619146851999999,0.849452023,-0.13439035240356337,1.2571606427582231,0.48258353817643207,1756822828.442051
2.5100709074,0.9427721043999999,1.1461620253999998,-0.18570303241219668,1.7373007548884483,0.35552358608453744,1756822828.450009
2.0554346134,0.48095734259999995,1.6534404165999999,-0.19792033717615698,2.1319197162176584,0.2565634000431664,1756822828.458039
1.8400805794,0.37088750299999995,2.6991038927999997,0.013439035240356337,2.4349087521908266,0.08429940287132612,1756822828.466018
2.1200408235999997,0.0,5.0943193154,0.2504547476611863,2.6316074287037576,-0.0879645943005142,1756822828.474013
2.8283163131999998,0.35892339,10.3800644388,0.5546656537370904,2.6963592486725023,-0.23701571242082994,1756822828.482556
3.4959138186,2.0769700168,16.4315127942,0.6304129083670593,2.6988027096252947,-0.30543261909900765,1756822828.490085
2.9072794589999997,2.8929225234,18.654444989599998,0.46792275500638725,2.6584856388108107,-0.3457497073667842,1756822828.498027
2.5962125209999996,2.5722842949999998,17.886348935,0.3274237676741362,2.5851816007875383,-0.455705485149012,1756822828.506082
2.7589244578,1.7994025952000001,16.9268270724,0.26267205242514663,2.1844541616092727,-0.35552358608453744,1756822828.514041
3.4719855926,0.9547362173999999,16.342978358,0.3885102914939378,1.435533309765336,-0.11239920382843482,1756822828.522037
4.108476404199999,-0.0334995164,17.838492483,0.6169738556734105,0.679282109969608,0.07452555906015787,1756822828.530025
2.931207685,-1.0073783146,19.7216438692,0.6365215956556246,0.4886921905584123,0.14782938764391973,1756822828.538006
3.254238736,-1.1772687192,20.949161862999997,0.5167920089688135,0.538783157543942,0.12339477811599911,1756822828.546037
3.4839497056,-1.4500504955999998,20.3174566966,0.30421088862261164,0.5082398956340413,0.11972958668681101,1756822828.554034
3.302095188,-2.237289131,18.2907359544,-0.029321531433504737,0.3933972308528144,0.23212879051524585,1756822828.562007
3.2350961552,-2.8689942973999996,15.945769806399998,-0.36529741244241315,0.38362336958835364,0.2345722514680379,1756822828.570007
2.4933211492,-4.1204405172,13.7778725308,-0.6914994321868608,0.44837510229063576,0.498466016916288,1756822828.578020
1.6438691261999998,-4.6037906824,11.6937240462,-0.8075638448977763,0.5742133588127195,0.43371431912059094,1756822828.586102
0.7537391189999999,-4.3334017286,10.1168539528,-0.877202447145765,0.7318165553612224,0.4263839362622147,1756822828.594031
0.15553346899999998,-4.295116567,8.3700934548,-0.8478809855254303,0.8747590036462655,0.31642817593327943,1756822828.601998
-0.6963113766,-3.9792639838,6.4462640844,-0.635299882632521,0.9541714671587149,0.158824961931484,1756822828.610280
-1.1868400096,-3.4648071248,4.905286329999999,-0.37995817815916555,0.9932668773099729,-0.039095375244672985,1756822828.618020
-1.2394821068,-2.8809584103999994,3.876372612,-0.0757472895365539,1.0274753131957692,-0.2309070600388498,1756822828.626010
-1.208375413,-2.4741785684,2.9144579268,0.22113321622768156,1.0018190255513302,-0.3995058483282095,1756822828.634020
-1.8927226766,-1.902293967,2.6105694566,0.5216788959678126,0.8307766890427158,-0.40317105721069013,1756822828.642017
-0.045463629400000004,-2.8785655878,2.5483560689999996,0.9969320512858685,1.1728612049803118,-0.10384709049366261,1756822828.650000
-0.849452023,-1.2275179938,0.28474588939999995,1.2730431913112492,1.1533136046244379,-0.9101892398216279,1756822828.658065
-1.43569356,0.4139583098,-0.45942193919999996,1.2449433903541403,0.8491027160018264,-0.22479840765686965,1756822828.666028
-1.6414763036,1.3591232368,0.09332008139999999,1.1007791592328235,0.4361577800733829,-0.048869219055841226,1756822828.674021
-1.1485548479999999,2.3306092123999997,1.9214365477999997,0.8002334271328151,0.08307767239493008,-0.20158552860534507,1756822828.682024
-0.6604190376,2.703889538,4.0606199522,0.5668829410477582,-0.24678955623199822,0.1075122819228507,1756822828.690004
-0.5862415369999999,3.7974094662,6.1902320662,0.28099800957108706,-0.5412266010434417,-0.06719517620178168,1756822828.698020
-0.5742774239999999,4.711467699399999,9.044869428,-0.023212879051524585,-0.7464773210779748,-0.10384709049366261,1756822828.706040
-0.6532405698,7.3172515108,11.397014043799999,-0.2504547476611863,-0.7293731118617228,-0.009773843811168246,1756822828.714043
-0.6675975054,9.164510558,13.694123739799998,-0.5900958375525753,-0.5400048880203381,-0.14538592669112765,1756822828.722007
-0.4331008906,9.3248296722,14.0985107592,-0.8564330639536175,-0.3103195584578843,0.13194689145077132,1756822828.730041
0.1220339526,7.1641108644,13.1605243,-0.7476990515543709,-0.2797762965479835,0.278554548618295,1756822828.738024
-0.0669990328,4.5798624564,12.873385588,-0.5400048880203381,-0.3262020546510327,0.558330827712986,1756822828.746022
