acc_x,acc_y,acc_z,gyro_x,gyro_y,gyro_z,timestamp
-0.4697,-0.077348,0.91012,14.21,-0.77,29.049999,1770467838.226158
-0.490928,-0.054412,0.930616,15.82,-5.32,27.719999,1770467838.233985
-0.504592,-0.019276,1.017968,15.68,-10.22,28.84,1770467838.241988
-0.521916,0.038308,1.046028,16.1,-13.79,26.67,1770467838.250054
-0.534116,0.034404,0.992104,13.3,-14.63,28.139999,1770467838.257946
-0.5429,0.037088,0.961116,14.0,-17.08,22.610001,1770467838.265957
-0.554368,0.051728,0.932568,14.42,-23.030001,23.309999,1770467838.27405
-0.552904,0.076372,0.88694,17.639999,-31.780001,14.91,1770467838.281996
-0.52826,0.11834,0.876936,14.63,-38.009998,15.68,1770467838.290116
-0.48434,0.137372,0.850828,14.28,-42.98,4.34,1770467838.297957
-0.46482,0.114192,0.909876,16.309999,-40.389999,-1.26,1770467838.305964
-0.4209,0.131272,0.915244,21.209999,-40.25,-6.79,1770467838.31396
-0.385032,0.158112,0.9333,22.889999,-41.02,-7.91,1770467838.322013
-0.371124,0.171044,0.93574,27.51,-39.689999,-14.21,1770467838.329973
-0.365756,0.174216,0.927932,26.67,-40.040001,-12.11,1770467838.337966
-0.348432,0.154452,0.957212,32.970001,-40.459999,-16.66,1770467838.345968
-0.327936,0.175924,0.912804,36.540001,-34.439999,-21.07,1770467838.353976
-0.345992,0.17324,0.909144,36.959999,-32.689999,-20.23,1770467838.361962
-0.3538,0.173484,0.906216,38.009998,-34.02,-25.27,1770467838.36996
-0.326716,0.183,0.93086,35.419998,-30.799999,-25.620001,1770467838.377966
-0.314272,0.221796,0.924516,33.529999,-30.59,-28.84,1770467838.3861
-0.30134,0.236924,0.91012,33.669998,-26.25,-33.25,1770467838.393959
-0.19764,0.383324,0.907192,21.0,-21.35,-43.540001,1770467838.401963
-0.164456,0.422364,0.952332,11.34,-11.41,-41.09,1770467838.410077
-0.1708,0.48434,0.98454,-1.05,-2.66,-42.560001,1770467838.417945
-0.174216,0.457744,0.990152,-9.24,-0.14,-47.950001,1770467838.425967
-0.09882,0.471408,1.017236,-17.219999,0.84,-48.650002,1770467838.434075
-0.027328,0.390888,1.059692,-23.1,6.09,-42.700001,1770467838.441974
0.002928,0.356728,1.15412,-22.889999,5.53,-42.139999,1770467838.449965
0.044652,0.140544,1.19194,-13.44,9.87,-30.030001,1770467838.457972
-0.004148,0.143472,1.211704,0.98,9.45,-25.200001,1770467838.466126
-0.01342,0.087352,1.22488,9.24,12.32,-20.58,1770467838.473969
-0.064904,-0.005612,1.191696,16.030001,17.57,-14.49,1770467838.481967
-0.133956,-0.148108,1.1346,25.200001,21.91,-11.48,1770467838.489985
-0.160064,-0.262544,1.09434,34.23,28.07,-7.98,1770467838.497999
-0.171532,-0.334524,1.08824,42.209999,34.439999,-7.77,1770467838.505963
-0.186172,-0.395524,1.098244,45.290001,40.740002,-5.95,1770467838.513959
-0.202764,-0.388936,1.103612,44.73,44.450001,-1.82,1770467838.521973
-0.212524,-0.364048,1.09312,42.349998,47.880001,-3.71,1770467838.530122
-0.266448,-0.319884,1.063108,38.220001,47.599998,0.63,1770467838.537943
-0.292556,-0.256932,1.051884,34.509998,41.860001,3.57,1770467838.545966
-0.293044,-0.203984,1.01992,28.77,34.790001,2.52,1770467838.553958
-0.27206,-0.192516,0.942572,25.9,31.219999,7.35,1770467838.561962
-0.237168,-0.18178,0.878156,26.32,30.52,7.0,1770467838.569953
-0.192272,-0.140788,0.891332,24.85,32.27,10.85,1770467838.577987
-0.170556,-0.081984,0.9455,22.889999,35.98,15.26,1770467838.586051
-0.199836,-0.032208,0.97722,19.459999,39.970001,15.82,1770467838.593963
-0.240096,0.005612,0.989176,16.24,43.889999,17.15,1770467838.601992
-0.271084,0.013664,1.00406,16.870001,48.650002,18.27,1770467838.610036
-0.303536,0.030988,1.024068,16.450001,53.759998,19.950001,1770467838.617966
-0.34282,0.043676,1.041636,18.34,57.889999,21.42,1770467838.625958
-0.36844,0.043432,1.038464,17.639999,57.540001,22.4,1770467838.63396
-0.372588,0.053924,1.004304,11.62,55.790001,27.93,1770467838.641958
-0.35746,0.07564,0.961604,3.71,52.080002,32.41,1770467838.650067
-0.3538,0.08784,0.920368,-2.24,47.18,35.77,1770467838.658208
-0.35502,0.100772,0.91744,-5.25,43.540001,40.389999,1770467838.665956
-0.371612,0.128344,0.937692,-13.23,39.970001,39.48,1770467838.67397
-0.389424,0.157868,0.96258,-19.32,38.639999,43.540001,1770467838.681966
-0.38796,0.182512,0.95404,-27.23,35.0,39.060001,1770467838.690007
-0.427244,0.2074,0.9333,-36.119999,31.08,42.84,1770467838.698058
-0.467748,0.195932,0.956236,-37.869999,19.32,38.919998,1770467838.705984
-0.460184,0.226432,0.997716,-40.25,3.85,40.669998,1770467838.713958
-0.443348,0.25254,1.014064,-43.889999,-11.34,41.580002,1770467838.721962
-0.397476,0.29402,1.00894,-42.91,-22.469999,41.720001,1770467838.730013
-0.320616,0.294752,1.003816,-47.32,-27.09,46.200001,1770467838.737958
-0.27938,0.286212,1.00284,-48.790001,-24.57,52.779999,1770467838.74606
-0.259128,0.277672,0.9638,-48.09,-22.82,54.25,1770467838.753963
-0.264496,0.260348,0.874008,-43.889999,-20.440001,62.16,1770467838.761961
-0.267424,0.226188,0.801052,-36.68,-14.7,65.660004,1770467838.769958
-0.272548,0.2318,0.789096,-36.119999,-7.56,70.209999,1770467838.777984
-0.281088,0.263032,0.843752,-33.110001,-2.17,75.739998,1770467838.786011
-0.295972,0.297192,0.909632,-38.57,0.77,72.029999,1770467838.793968
-0.327204,0.318176,0.955016,-43.75,4.27,76.720001,1770467838.80196
-0.34892,0.3355,0.981612,-49.209999,7.28,80.639999,1770467838.809968
-0.379664,0.34038,0.969168,-59.43,8.4,85.82,1770467838.818009
-0.4209,0.341112,0.919392,-66.989998,6.86,90.510002,1770467838.825941
-0.455304,0.333304,0.855464,-74.410004,6.44,94.57,1770467838.833966
-0.493856,0.342088,0.785436,-84.07,4.55,98.980003,1770467838.841964
-0.535092,0.368928,0.729316,-93.870003,-0.49,104.720001,1770467838.849979
-0.553148,0.389668,0.70882,-100.940002,-9.66,111.300003,1770467838.857971
-0.538752,0.393816,0.721264,-106.400002,-18.549999,115.779999,1770467838.86596
-0.521916,0.40504,0.750056,-112.629997,-29.049999,117.25,1770467838.873992
-0.493612,0.410408,0.77592,-117.529999,-36.68,124.110001,1770467838.881958
-0.468724,0.447496,0.773724,-122.849998,-45.150002,126.0,1770467838.889969
-0.431148,0.439444,0.755668,-129.289993,-49.349998,131.179993,1770467838.898045
-0.416264,0.462136,0.72102,-133.490005,-54.599998,140.139999,1770467838.905965
-0.42212,0.493856,0.677588,-139.860001,-59.43,145.669998,1770467838.91398
-0.439932,0.48434,0.68076,-148.330002,-64.959999,154.770004,1770467838.921967
-0.440176,0.4026,0.750788,-150.080002,-70.559998,154.630005,1770467838.930004
-0.406992,0.222528,0.840336,-146.160004,-71.260002,162.190002,1770467838.938017
-0.362584,0.029768,0.90402,-130.270004,-68.110001,157.220001,1770467838.945962
-0.30378,-0.190808,0.964288,-115.010002,-61.32,159.039993,1770467838.954001
-0.194224,-0.193248,1.007964,-90.860001,-56.77,159.880005,1770467838.961968
-0.018788,-0.6771,1.257088,-74.830002,-55.09,189.630005,1770467838.970184
-0.243756,-0.94184,1.402756,-60.619999,-12.46,155.539993,1770467838.978403
-0.102968,-1.220488,1.451312,-26.530001,-2.03,132.089996,1770467838.986401
-0.111752,-1.146068,1.430328,8.75,-0.49,122.849998,1770467838.993981
-0.122244,-0.972828,1.475224,35.84,-1.47,128.449997,1770467839.001961
-0.110776,-0.809592,1.594784,50.189999,-8.33,112.559998,1770467839.009965
-0.105408,-0.634644,1.681648,54.529999,-16.309999,115.010002,1770467839.017961
-0.12078,-0.438468,1.683356,54.32,-20.58,106.82,1770467839.026034
-0.129076,-0.257664,1.602836,49.209999,-22.26,107.800003,1770467839.034018
-0.122732,-0.137128,1.483764,44.310001,-24.92,105.209999,1770467839.041965
-0.110288,-0.072468,1.362984,40.389999,-26.879999,102.059998,1770467839.049959
-0.084424,-0.046116,1.238056,32.41,-23.030001,108.080002,1770467839.057957
-0.052704,-0.030988,1.109956,34.09,-17.08,108.150002,1770467839.06607
-0.034404,-0.0244,0.99796,36.959999,-7.0,113.889999,1770467839.073976
-0.029768,0.001464,0.881084,45.220001,5.32,114.309998,1770467839.081966
-0.051484,0.051484,0.755424,58.66,17.85,121.660004,1770467839.089974
-0.105652,0.116632,0.626592,71.540001,28.42,127.050003,1770467839.097953
-0.156892,0.212036,0.554856,82.459999,37.099998,130.690002,1770467839.106004
-0.244488,0.282308,0.446276,85.959999,41.509998,132.089996,1770467839.113956
-0.343552,0.3111,0.372344,82.32,40.18,133.419998,1770467839.121958
-0.440176,0.4453,0.322568,79.099998,34.720001,130.479996,1770467839.129952
-0.512156,0.49654,0.363072,67.550003,25.549999,121.519997,1770467839.137951
-0.587552,0.550708,0.423828,51.799999,15.75,103.459999,1770467839.145956
-0.510448,0.696376,0.476288,42.139999,0.63,106.260002,1770467839.153992
-0.667096,0.757132,0.565836,28.559999,-7.91,101.150002,1770467839.161996
-0.691496,0.792756,0.62342,9.45,-18.34,89.32,1770467839.170003
-0.695156,0.800076,0.636108,-6.86,-25.76,84.07,1770467839.177951
-0.704672,0.794952,0.56852,-22.120001,-34.369999,80.010002,1770467839.185972
-0.719556,0.768112,0.472384,-33.040001,-43.119999,68.32,1770467839.194041
-0.720532,0.71614,0.387716,-35.209999,-52.849998,62.790001,1770467839.201981
-0.691984,0.631472,0.345992,-33.110001,-63.349998,53.060001,1770467839.209952
-0.64172,0.52094,0.387716,-35.630001,-73.080002,46.34,1770467839.217951
-0.568764,0.422364,0.45506,-35.700001,-83.019997,42.84,1770467839.225955
-0.5002,0.320616,0.527772,-36.330002,-93.029999,38.990002,1770467839.233973
-0.449448,0.249856,0.586576,-44.450001,-98.139999,44.939999,1770467839.242071
-0.381372,0.20252,0.64294,-53.970001,-103.040001,49.0,1770467839.249981
-0.300608,0.15128,0.69418,-60.689999,-103.459999,54.389999,1770467839.257953
-0.196664,0.12322,0.806176,-66.779999,-102.690002,58.310001,1770467839.265954
-0.057096,0.124684,1.025044,-80.43,-99.330002,64.959999,1770467839.273953
0.076372,0.13664,1.319308,-99.120003,-94.220001,73.779999,1770467839.281953
0.143472,0.125904,1.557696,-122.080002,-81.620003,84.489998,1770467839.290009
0.294752,0.073932,1.625528,-143.639999,-63.209999,97.860001,1770467839.297969
0.33916,-0.011712,1.429596,-140.279999,-46.900002,118.580002,1770467839.305967
0.284748,-0.103212,1.29564,-122.5,-26.459999,125.440002,1770467839.313956
0.214964,-0.1525,1.249036,-97.860001,-4.69,128.940002,1770467839.32196
0.108824,-0.154696,1.278804,-75.529999,17.780001,126.279999,1770467839.330009
-0.03782,-0.115168,1.336632,-57.959999,32.549999,122.43,1770467839.337969
-0.19642,-0.04636,1.374696,-50.119999,36.400002,112.349998,1770467839.345959
-0.305,0.060024,1.399584,-51.240002,26.950001,107.029999,1770467839.353956
-0.344528,0.10858,1.422764,-53.200001,3.22,95.269997,1770467839.361957
-0.2806,0.052216,1.401048,-53.41,-28.77,76.300003,1770467839.369977
-0.159088,-0.042944,1.282708,-45.919998,-56.419998,64.400002,1770467839.377948
0.00366,-0.160552,1.164612,-37.66,-72.449997,56.77,1770467839.385959
0.197152,-0.29036,1.091168,-26.110001,-81.339996,57.68,1770467839.393979
0.313296,-0.495564,1.079212,-18.969999,-89.25,45.779999,1770467839.40196
0.373564,-0.760304,1.113128,-13.23,-85.470001,35.209999,1770467839.410077
0.542168,-0.907192,1.135088,2.31,-75.25,31.85,1770467839.417996
0.618052,-0.987712,1.184132,21.42,-59.43,33.529999,1770467839.425962
0.654408,-0.983076,1.255868,35.349998,-34.860001,33.18,1770467839.433945
0.64172,-0.941596,1.309792,46.060001,-3.36,35.139999,1770467839.441957
0.558272,-0.865224,1.315404,51.52,24.99,42.700001,1770467839.449962
0.395524,-0.764452,1.264896,52.639999,41.860001,50.049999,1770467839.457962
0.20984,-0.641964,1.242692,53.970001,48.509998,62.790001,1770467839.466047
0.048312,-0.465796,1.204628,54.740002,45.5,65.309998,1770467839.473988
-0.108092,-0.28304,1.165588,50.889999,33.740002,73.360001,1770467839.482009
-0.244976,-0.105408,1.138992,47.740002,17.639999,78.889999,1770467839.489995
-0.366,0.02562,1.117276,41.580002,-4.13,81.690002,1770467839.49798
-0.41358,0.110288,1.083604,37.169998,-25.48,87.43,1770467839.506089
-0.43676,0.110776,1.048956,30.030001,-48.299999,81.480003,1770467839.51398
-0.385032,0.100284,1.07238,25.76,-66.360001,78.68,1770467839.521964
-0.302072,0.07076,1.041392,25.27,-80.010002,74.339996,1770467839.52995
-0.209108,0.030744,0.991616,23.1,-89.389999,68.32,1770467839.537977
-0.110532,-0.011468,0.931836,28.139999,-95.620003,62.16,1770467839.545958
-0.009272,-0.042944,0.892552,32.549999,-99.889999,60.34,1770467839.554063
0.080764,-0.072224,0.875472,36.330002,-102.339996,55.720001,1770467839.561961
0.17324,-0.098576,0.866444,44.099998,-104.650002,52.150002,1770467839.569959
0.254736,-0.110044,0.858636,48.790001,-104.440002,47.32,1770467839.577959
0.320616,-0.086376,0.861076,55.580002,-102.690002,43.330002,1770467839.585969
0.394304,-0.066856,0.854244,57.330002,-100.870003,31.15,1770467839.593978
0.447008,-0.046604,0.852048,58.869999,-94.919998,24.290001,1770467839.601965
0.47824,-0.06588,0.854976,64.330002,-88.339996,16.59,1770467839.609968
0.493124,-0.082228,0.828136,63.77,-75.32,6.72,1770467839.618015
0.582672,-0.022204,0.824476,70.769997,-69.089996,8.61,1770467839.62596
0.60756,-0.004392,0.833748,77.0,-54.459999,8.26,1770467839.633959
0.61,0.0122,0.838872,78.75,-32.130001,13.3,1770467839.641963
0.576816,0.08784,0.790804,80.989998,-10.36,21.629999,1770467839.650003
0.540216,0.222284,0.76372,83.650002,11.34,38.709999,1770467839.657965
0.423096,0.367708,0.730292,85.82,33.529999,48.439999,1770467839.665983
0.332816,0.549244,0.7015,81.550003,48.23,56.279999,1770467839.673959
0.247172,0.56608,0.655628,72.169998,56.84,66.849998,1770467839.681973
0.149572,0.640012,0.567544,64.120003,62.509998,76.300003,1770467839.690249
0.072712,0.67832,0.510448,45.779999,64.190002,83.720001,1770467839.697963
0.020984,0.713944,0.476044,37.52,70.209999,99.260002,1770467839.705966
-0.010736,0.675392,0.467504,20.02,69.440002,101.220001,1770467839.714065
-0.02196,0.623664,0.48312,7.56,72.660004,107.029999,1770467839.721992
-0.009028,0.573644,0.549488,2.87,79.940002,106.470001,1770467839.729961
0.005368,0.520452,0.66856,-7.21,91.629997,112.629997,1770467839.737964
-0.00122,0.496296,0.76738,-17.85,103.529999,116.620003,1770467839.745995
-0.027816,0.458232,0.847412,-34.860001,110.599998,122.220001,1770467839.754076
-0.080764,0.43188,0.9211,-44.52,108.5,129.149994,1770467839.761993
-0.11956,0.422608,1.018944,-49.560001,97.790001,129.5,1770467839.769957
-0.151768,0.371368,1.16388,-52.009998,80.849998,136.570007,1770467839.77796
-0.218624,0.261812,1.31638,-45.779999,64.330002,139.929993,1770467839.785989
-0.298656,0.19154,1.39934,-37.869999,50.959999,139.369995,1770467839.793983
-0.400648,0.149816,1.423008,-30.030001,40.669998,143.289993,1770467839.801965
-0.476532,0.2074,1.41154,-24.57,32.619999,141.610001,1770467839.809988
-0.538996,0.282552,1.348344,-23.799999,21.84,139.160004,1770467839.81796
-0.602192,0.32086,1.308084,-24.08,10.64,128.940002,1770467839.82596
-0.584136,0.318908,1.30906,-21.91,0.42,114.449997,1770467839.833962
-0.526064,0.333548,1.296372,-20.09,-9.38,104.93,1770467839.841963
-0.47824,0.342088,1.240984,-23.379999,-15.75,101.57,1770467839.849986
-0.41968,0.33062,1.139236,-27.65,-19.389999,100.309998,1770467839.857965
-0.356728,0.2928,1.019188,-34.23,-18.48,98.07,1770467839.865962
-0.304268,0.22814,0.899384,-39.759998,-21.700001,102.690002,1770467839.873959
-0.228384,0.154696,0.888892,-45.779999,-29.26,97.580002,1770467839.881958
-0.108824,0.046604,1.01016,-43.470001,-43.259998,86.940002,1770467839.890024
0.01586,-0.027084,1.10044,-36.049999,-52.639999,76.720001,1770467839.897978
0.138104,-0.116144,1.135332,-27.02,-57.889999,72.239998,1770467839.905964
0.313052,-0.32452,1.212192,-19.459999,-60.200001,69.650002,1770467839.914008
0.366732,-0.509716,1.281732,-17.57,-60.900002,53.130001,1770467839.922023
0.474092,-0.640012,1.27368,-1.33,-46.689999,49.700001,1770467839.929966
0.501664,-0.709796,1.283928,14.63,-28.209999,50.119999,1770467839.937964
0.515328,-0.733464,1.288564,30.66,-8.82,49.77,1770467839.945967
0.501908,-0.714676,1.27734,39.689999,10.29,52.779999,1770467839.954426
0.477508,-0.65514,1.241228,49.209999,22.75,56.07,1770467839.961997
0.423828,-0.5551,1.171688,60.34,33.110001,60.48,1770467839.969989
0.349652,-0.404308,1.083116,65.940002,34.650002,66.290001,1770467839.978052
0.26718,-0.200324,0.986492,70.769997,29.190001,65.379997,1770467839.986767
0.210572,-0.025864,0.945012,73.779999,22.889999,65.870003,1770467839.993985
0.155916,0.092964,0.931348,71.400002,17.01,61.810001,1770467840.001972
0.131516,0.240584,0.930616,68.389999,8.89,48.790001,1770467840.010066
0.121756,0.300608,0.943548,59.990002,4.13,38.709999,1770467840.017958
0.10492,0.31598,0.96502,57.540001,3.78,25.200001,1770467840.02599
0.19642,0.456768,0.928176,63.77,3.85,38.360001,1770467840.033963
0.120292,0.476532,0.976732,48.860001,-3.64,33.25,1770467840.041972
0.120048,0.490928,1.000644,42.0,-6.02,34.650002,1770467840.049965
0.11102,0.457012,1.00894,33.110001,-6.79,28.49,1770467840.057983
0.110288,0.366244,1.009916,26.530001,-5.11,23.52,1770467840.065961
0.088328,0.271328,0.99064,22.889999,-0.49,23.52,1770467840.07396
0.073688,0.221308,0.949892,19.32,3.85,21.07,1770467840.082014
0.05734,0.159088,0.90768,23.1,4.9,20.51,1770467840.090139
0.0305,0.140056,0.855708,25.9,3.22,18.27,1770467840.097963
0.007076,0.11712,0.837408,29.540001,0.07,15.12,1770467840.105951
0.005124,0.12444,0.840824,33.529999,-5.53,10.5,1770467840.113969
0.005856,0.149816,0.816912,35.0,-10.71,12.18,1770467840.121957
0.00854,0.156892,0.813984,40.880001,-17.780001,9.73,1770467840.129968
0.028548,0.151768,0.808372,43.119999,-23.24,12.18,1770467840.138016
0.053436,0.18056,0.802028,50.540001,-23.17,15.19,1770467840.145951
0.064904,0.252784,0.792024,57.330002,-22.889999,18.620001,1770467840.153953
0.072956,0.343796,0.79544,65.099998,-22.120001,19.110001,1770467840.161989
0.081252,0.435296,0.824232,67.620003,-24.15,21.84,1770467840.169959
0.09516,0.509472,0.87596,64.330002,-25.76,22.190001,1770467840.177931
0.12566,0.55144,0.909876,54.32,-27.02,26.879999,1770467840.186008
0.167384,0.54656,0.925248,43.189999,-27.02,25.9,1770467840.193974
0.212524,0.516304,0.914024,30.799999,-24.92,30.030001,1770467840.20196
0.24766,0.496052,0.879132,24.57,-21.209999,29.120001,1770467840.209985
0.272304,0.489464,0.840336,15.54,-11.9,35.91,1770467840.217949
0.288896,0.48556,0.809348,10.92,-1.26,41.93,1770467840.226009
0.292312,0.456768,0.8052,-0.91,9.52,42.0,1770467840.233959
0.293776,0.3843,0.823988,-12.53,25.9,49.700001,1770467840.241955
0.259128,0.293532,0.883524,-15.54,43.82,56.209999,1770467840.249954
0.214964,0.14518,0.988688,-17.01,64.400002,65.029999,1770467840.257953
0.138104,-0.008052,1.108736,-7.49,80.639999,67.199997,1770467840.265955
0.018788,-0.080764,1.192184,-4.13,94.43,76.650002,1770467840.274004
-0.14884,-0.05978,1.23586,-3.99,99.959999,81.480003,1770467840.281945
-0.318176,-0.002196,1.251476,-7.56,96.18,86.589996,1770467840.289978
-0.456768,0.078812,1.255868,-10.36,78.68,94.57,1770467840.297964
-0.57706,0.135176,1.283684,-9.8,50.189999,99.75,1770467840.305957
-0.722728,0.15494,1.331508,-13.23,17.219999,89.879997,1770467840.3141
-0.756644,0.154208,1.345416,-15.75,-16.52,75.529999,1770467840.321958
-0.660996,0.19886,1.3542,-13.09,-53.689999,63.419998,1770467840.329961
-0.506056,0.2501,1.350296,-18.200001,-80.989998,52.849998,1770467840.337957
-0.318176,0.298412,1.322724,-21.07,-96.739998,45.639999,1770467840.346034
-0.136396,0.317688,1.298812,-28.0,-103.32,34.650002,1770467840.353985
0.021716,0.324032,1.260748,-35.84,-101.919998,25.129999,1770467840.361967
0.160308,0.266448,1.225368,-42.419998,-91.419998,16.450001,1770467840.369965
0.3294,0.277184,1.1346,-44.73,-85.260002,10.85,1770467840.377996
0.4636,0.309148,1.098,-42.209999,-80.57,22.33,1770467840.386071
0.518744,0.261812,1.026508,-45.990002,-71.120003,29.610001,1770467840.394019
0.563152,0.226188,0.9272,-47.529999,-58.240002,35.560001,1770467840.401968
0.560468,0.238876,0.813008,-43.119999,-42.700001,38.360001,1770467840.40996
0.55266,0.25376,0.691496,-39.689999,-29.26,44.939999,1770467840.418024
0.535824,0.282308,0.606828,-36.68,-13.58,51.59,1770467840.425974
0.516548,0.302316,0.576328,-32.619999,3.78,53.619999,1770467840.433962
0.50508,0.312564,0.558028,-30.1,25.059999,63.84,1770467840.441955
0.485072,0.295728,0.527528,-23.66,43.959999,68.32,1770467840.449949
0.443836,0.30134,0.497028,-20.58,59.990002,79.870003,1770467840.457943
0.399672,0.284016,0.5063,-8.82,69.720001,87.150002,1770467840.465994
0.368928,0.23058,0.552904,-0.56,74.059998,87.919998,1770467840.474006
0.34038,0.1708,0.608292,9.66,73.989998,84.559998,1770467840.481967
0.316956,0.129808,0.652456,22.889999,72.660004,79.660004,1770467840.49002
0.31354,0.099552,0.700524,29.959999,71.190002,68.599998,1770467840.497974
0.334524,0.050752,0.738832,35.560001,71.190002,55.09,1770467840.505962
0.367708,-0.013908,0.754692,39.689999,71.540001,47.040001,1770467840.513967
0.394792,-0.06832,0.772748,41.790001,73.150002,42.98,1770467840.522013
0.422364,-0.118096,0.820328,49.0,76.089996,38.220001,1770467840.529946
0.437248,-0.166896,0.937448,50.959999,83.650002,31.92,1770467840.537946
0.460672,-0.192516,1.116544,56.0,97.089996,30.030001,1770467840.54606
0.453352,-0.223748,1.281244,62.650002,112.489998,22.540001,1770467840.553958
0.409432,-0.250588,1.39934,65.309998,126.279999,19.6,1770467840.561973
0.317932,-0.25376,1.456436,74.760002,137.970001,18.059999,1770467840.569965
0.188612,-0.20618,1.459608,82.669998,149.589996,18.27,1770467840.577979
0.029768,-0.090768,1.42496,87.5,159.179993,19.040001,1770467840.586036
-0.121512,0.061488,1.415444,82.110001,162.75,17.709999,1770467840.594012
-0.293288,0.256688,1.400804,68.949997,167.509995,25.129999,1770467840.601973
-0.423096,0.460184,1.409832,44.240002,161.279999,25.34,1770467840.609986
-0.525576,0.635864,1.430084,17.780001,150.639999,32.549999,1770467840.617964
-0.604632,0.728584,1.463512,-7.77,134.399994,37.59,1770467840.626023
-0.66734,0.751032,1.48474,-30.59,113.82,42.77,1770467840.63396
-0.709308,0.73932,1.46278,-46.759998,88.410004,45.639999,1770467840.641955
-0.72468,0.677832,1.39934,-57.189999,62.509998,47.110001,1770467840.649955
-0.711748,0.594628,1.283928,-62.02,36.75,48.23,1770467840.657998
-0.670268,0.51484,1.118984,-60.970001,14.07,44.029999,1770467840.66601
-0.611952,0.47092,0.938668,-55.369999,-8.68,36.330002,1770467840.673966
-0.533628,0.430904,0.786412,-48.860001,-27.370001,28.209999,1770467840.681961
-0.447496,0.402112,0.665876,-36.470001,-39.549999,25.129999,1770467840.689999
-0.366244,0.373564,0.597068,-27.65,-46.970001,22.82,1770467840.697975
-0.293776,0.358436,0.544608,-16.66,-50.330002,21.280001,1770467840.705961
-0.249368,0.35136,0.4819,-12.46,-49.630001,24.92,1770467840.713958
-0.219844,0.357216,0.396744,-5.81,-49.349998,23.1,1770467840.721955
-0.196664,0.368196,0.307196,-1.54,-54.25,29.049999,1770467840.730097
-0.182268,0.366,0.239364,-0.35,-61.25,28.35,1770467840.737952
-0.162992,0.366,0.182512,3.78,-68.459999,30.17,1770467840.745943
-0.139324,0.36478,0.14518,6.16,-77.0,29.469999,1770467840.753975
-0.11102,0.377224,0.119804,7.77,-85.190002,29.33,1770467840.761969
-0.062464,0.37454,0.13542,15.19,-92.260002,26.040001,1770467840.769962
0.008052,0.332572,0.221064,20.370001,-91.419998,25.76,1770467840.77798
0.070028,0.278648,0.3538,22.889999,-87.010002,24.92,1770467840.785951
0.118584,0.244,0.548268,18.969999,-80.080002,23.940001,1770467840.794004
0.127368,0.221796,0.764208,10.99,-69.650002,26.67,1770467840.80199
0.0915,0.20374,1.00162,9.31,-54.529999,22.75,1770467840.810078
0.022936,0.16348,1.24318,4.34,-33.599998,13.86,1770467840.817953
-0.051972,0.095648,1.4213,6.23,-13.79,2.31,1770467840.825996
-0.08784,0.09272,1.635044,0.35,-4.55,-11.13,1770467840.833977
-0.089304,0.15616,1.904176,-10.43,-4.83,-15.61,1770467840.842039
-0.014396,0.122732,2.057652,-23.1,-20.23,-12.39,1770467840.849957
-0.005124,-0.014152,2.081808,-34.650002,-42.209999,-2.31,1770467840.857972
0.03538,-0.133468,2.154032,-35.419998,-55.02,3.64,1770467840.865957
0.109068,-0.249124,2.198928,-36.68,-62.439999,6.58,1770467840.87396
0.183732,-0.235704,2.105476,-39.970001,-66.849998,8.4,1770467840.881959
0.250588,-0.19642,1.893684,-41.650002,-71.68,11.2,1770467840.889954
0.30744,-0.113948,1.685796,-43.540001,-71.540001,11.62,1770467840.898092
0.357216,-0.030012,1.484252,-40.110001,-66.709999,14.91,1770467840.905964
0.390156,0.020252,1.292224,-39.759998,-60.130001,14.07,1770467840.913994
0.428708,0.068564,1.094584,-39.970001,-51.799999,12.53,1770467840.921965
0.484096,0.200812,0.916708,-28.35,-44.310001,26.25,1770467840.929959
0.466284,0.28426,0.7747,-20.860001,-33.810001,34.23,1770467840.937975
0.454328,0.338672,0.654896,-20.09,-20.370001,38.360001,1770467840.945958
0.447008,0.38064,0.557052,-18.690001,-6.37,40.599998,1770467840.953958
0.427732,0.38064,0.447008,-17.57,8.12,46.689999,1770467840.961944
0.396012,0.35014,0.343552,-9.1,20.299999,46.830002,1770467840.970127
0.331108,0.297192,0.221552,0.77,38.5,53.970001,1770467840.981163
0.294264,0.290116,0.177144,8.54,47.950001,52.57,1770467840.986258
0.233996,0.273768,0.122976,17.360001,62.720001,53.619999,1770467840.994001
0.178852,0.258396,0.098088,24.43,77.769997,52.150002,1770467841.002022
0.140544,0.2257,0.08662,29.33,87.849998,47.669998,1770467841.009969
0.119804,0.202276,0.085156,31.43,94.639999,42.07,1770467841.017958
0.104188,0.193492,0.105164,35.209999,99.330002,35.07,1770467841.026005
0.09394,0.17446,0.205204,35.560001,101.639999,33.740002,1770467841.034055
0.117364,0.141764,0.424072,34.860001,101.290001,30.73,1770467841.041957
0.163236,0.099552,0.770796,30.66,102.059998,21.84,1770467841.049962
0.179096,0.098088,1.175836,21.559999,108.639999,14.35,1770467841.057955
0.18178,0.07564,1.5067,15.89,121.940002,5.11,1770467841.065963
0.20008,-0.069052,1.7202,5.53,131.179993,-5.18,1770467841.073983
0.242048,-0.299876,1.84586,-3.15,124.879997,3.78,1770467841.081987
0.165188,-0.480192,1.974692,-5.81,110.529999,19.110001,1770467841.089959
-0.013908,-0.482632,2.054968,0.35,114.169998,34.790001,1770467841.098022
-0.119804,-0.498248,2.037888,11.2,115.290001,47.459999,1770467841.105965
-0.35258,-0.611708,1.964688,0.42,122.290001,22.75,1770467841.113953
-0.399672,-0.513132,1.815116,-2.03,117.18,17.15,1770467841.121953
-0.477264,-0.375028,1.730204,0.77,115.5,6.79,1770467841.129981
-0.549,-0.196176,1.668472,0.56,111.160004,11.55,1770467841.137947
-0.598532,-0.00122,1.594296,-0.35,103.529999,0.84,1770467841.146056
-0.607316,0.171776,1.488156,-11.34,89.389999,-7.7,1770467841.154016
-0.590236,0.305732,1.348588,-22.33,73.080002,-7.35,1770467841.162126
-0.559004,0.365024,1.188036,-30.309999,57.68,-15.96,1770467841.169982
-0.52216,0.364536,1.008452,-38.360001,38.009998,-17.219999,1770467841.177953
-0.48068,0.337208,0.833992,-34.580002,16.1,-22.82,1770467841.185955
-0.425292,0.298656,0.693204,-30.73,-5.46,-32.130001,1770467841.19398
-0.35746,0.264252,0.578524,-21.91,-22.889999,-35.07,1770467841.201964
-0.286456,0.225212,0.486048,-8.33,-39.34,-38.639999,1770467841.209972
-0.249124,0.23424,0.386496,2.66,-50.68,-40.32,1770467841.218018
-0.211304,0.216184,0.306464,11.2,-59.43,-45.849998,1770467841.22596
-0.187392,0.218868,0.244,18.41,-66.779999,-51.869999,1770467841.233951
-0.046848,0.322568,0.165676,30.030001,-67.760002,-32.060001,1770467841.241951
-0.024888,0.369172,0.143228,39.130001,-76.860001,-18.129999,1770467841.24995
-0.003904,0.425048,0.112972,41.650002,-82.32,-1.4,1770467841.257948
0.021472,0.455792,0.098576,38.639999,-88.760002,9.31,1770467841.265997
0.050508,0.47336,0.095404,37.099998,-91.139999,19.459999,1770467841.273953
0.077592,0.471896,0.11346,35.279999,-84.699997,25.969999,1770467841.281941
0.097844,0.479704,0.176412,33.040001,-71.68,30.030001,1770467841.289955
0.121268,0.506056,0.310124,30.24,-46.900002,29.959999,1770467841.298097
0.149084,0.546072,0.5368,24.85,-15.33,27.65,1770467841.30596
0.172996,0.595116,0.857416,20.23,20.790001,22.959999,1770467841.313959
0.141032,0.619272,1.192428,10.99,57.540001,16.030001,1770467841.321958
0.045384,0.588772,1.44204,7.91,92.400002,8.47,1770467841.32996
-0.143472,0.522892,1.694824,-3.99,122.709999,2.87,1770467841.337957
-0.456036,0.375028,1.895392,-12.67,149.940002,-6.86,1770467841.346035
-0.609512,0.162992,2.053504,-21.98,158.410004,-12.53,1770467841.353956
-0.706624,-0.061,2.2875,-23.1,142.169998,-4.76,1770467841.362001
-0.907924,-0.355996,2.42292,-15.19,119.629997,10.29,1770467841.369955
-1.110932,-0.676368,2.386808,-25.76,77.209999,-14.84,1770467841.377969
-1.094828,-0.73322,2.164036,-25.549999,20.299999,-14.49,1770467841.386064
-1.020164,-0.712724,1.883924,-36.68,-39.130001,-19.459999,1770467841.394071
-0.870836,-0.642208,1.63358,-45.919998,-87.220001,-15.54,1770467841.401965
-0.643916,-0.521428,1.436428,-51.450001,-122.57,-19.040001,1770467841.410044
-0.396256,-0.398452,1.292224,-55.580002,-143.990005,-17.15,1770467841.417983
-0.158844,-0.26718,1.15778,-55.09,-156.169998,-13.16,1770467841.426043
0.013908,-0.134688,1.00894,-54.880001,-162.119995,-5.88,1770467841.433981
0.11102,0.014152,0.85156,-53.900002,-158.410004,-0.14,1770467841.441958
0.178364,0.082716,0.69174,-53.130001,-152.389999,-4.69,1770467841.449955
0.223748,0.19398,0.506056,-49.91,-150.639999,-11.41,1770467841.458025
0.39894,0.465552,0.288164,-23.24,-157.850006,23.17,1770467841.465958
0.32452,0.384056,0.18422,-7.07,-149.100006,39.130001,1770467841.473944
0.315004,0.387228,0.059048,7.0,-134.610001,58.240002,1770467841.481959
0.308416,0.371856,-0.01586,23.1,-119.0,60.200001,1770467841.489972
0.304024,0.348188,-0.055144,36.189999,-96.879997,60.830002,1770467841.497998
0.29158,0.34038,-0.057096,51.869999,-70.0,61.459999,1770467841.505974
0.281088,0.347212,-0.028304,58.380001,-40.110001,53.200001,1770467841.513964
0.277672,0.350628,0.03294,54.669998,-10.36,47.529999,1770467841.521972
0.282064,0.359656,0.13054,48.299999,18.9,39.549999,1770467841.529951
0.294752,0.371856,0.269376,40.810001,49.209999,35.560001,1770467841.537944
0.333304,0.355264,0.472384,35.77,77.209999,32.830002,1770467841.545969
0.376248,0.299876,0.740784,28.559999,101.849998,29.540001,1770467841.554001
0.367708,0.204472,1.00284,18.41,124.040001,18.48,1770467841.562121
0.31964,0.076128,1.21634,11.13,140.419998,2.1,1770467841.569971
0.23546,-0.025132,1.392508,5.25,158.270004,-7.56,1770467841.57796
0.154696,-0.161772,1.620892,8.47,169.610001,-10.78,1770467841.585964
0.071248,-0.26108,2.03984,2.52,172.690002,-9.8,1770467841.593993
-0.141032,-0.328668,2.4888,1.68,179.830002,-3.78,1770467841.60201
-0.298168,-0.474824,2.688636,10.08,171.149994,9.94,1770467841.609972
-0.52582,-0.571204,2.662528,9.31,150.5,31.290001,1770467841.61796
-0.805688,-0.654164,2.376072,-19.040001,121.519997,6.72,1770467841.626036
-0.8662,-0.575596,2.024468,-35.490002,83.720001,4.48,1770467841.634003
-0.8906,-0.459452,1.68726,-47.880001,46.41,-2.31,1770467841.64196
-0.840336,-0.36356,1.436916,-50.75,17.43,-5.88,1770467841.649964
-0.747128,-0.254004,1.274168,-54.32,0.63,-6.09,1770467841.657987
-0.646356,-0.128832,1.16022,-52.009998,-10.99,-12.04,1770467841.66651
-0.532652,-0.031232,1.05164,-52.779999,-15.54,-17.57,1770467841.673959
-0.453108,0.069296,0.930616,-53.200001,-21.209999,-21.49,1770467841.681959
-0.384544,0.160552,0.796416,-46.41,-28.77,-27.440001,1770467841.689967
-0.328668,0.23546,0.658556,-43.470001,-35.98,-30.799999,1770467841.697988
-0.279136,0.256932,0.529968,-31.57,-44.52,-31.219999,1770467841.705963
-0.228872,0.273768,0.416996,-20.58,-52.43,-35.209999,1770467841.713967
-0.187148,0.282552,0.32574,-12.11,-60.200001,-35.139999,1770467841.721961
-0.184464,0.257664,0.261568,-1.54,-65.239998,-41.650002,1770467841.730053
-0.169824,0.291336,0.194468,6.3,-68.32,-49.77,1770467841.737958
-0.06832,0.450912,0.101992,23.52,-67.760002,-33.25,1770467841.746008
-0.052216,0.509472,0.090524,34.790001,-76.230003,-11.97,1770467841.753972
-0.022692,0.567544,0.08662,36.119999,-83.510002,1.75,1770467841.76197
0.019276,0.603656,0.097844,39.34,-89.110001,12.88,1770467841.770109
0.062952,0.627568,0.12078,39.759998,-88.199997,24.99,1770467841.777958
0.113948,0.648796,0.146644,49.419998,-82.669998,34.650002,1770467841.786002
0.161284,0.63684,0.20374,56.0,-69.300003,43.75,1770467841.793964
0.171532,0.619028,0.305244,61.389999,-45.080002,50.470001,1770467841.801974
0.17324,0.611464,0.460184,61.529999,-15.82,49.419998,1770467841.81003
0.17202,0.626348,0.665144,51.310001,18.41,44.73,1770467841.817972
0.145668,0.639036,0.908656,41.650002,55.16,33.880001,1770467841.825981
0.043432,0.60268,1.100196,34.23,88.199997,30.309999,1770467841.833953
-0.135176,0.504592,1.29198,31.08,115.43,16.030001,1770467841.841956
-0.380152,0.410408,1.585512,28.42,135.869995,5.81,1770467841.85005
-0.647332,0.25864,1.9459,12.81,146.929993,-11.69,1770467841.857983
-0.712236,0.083204,2.246996,-4.48,130.759995,-8.19,1770467841.865943
-1.027484,-0.27206,2.57542,-21.559999,101.849998,2.8,1770467841.873969
-1.284172,-0.854488,2.659844,-38.990002,73.849998,-11.27,1770467841.881992
-1.28588,-1.070916,2.46928,-37.240002,22.190001,-6.23,1770467841.889971
-1.229028,-1.105808,2.189168,-44.310001,-41.790001,-15.96,1770467841.89826
-1.072624,-0.928176,1.889048,-49.84,-94.709999,-13.44,1770467841.906006
-0.825208,-0.7198,1.67384,-54.740002,-136.990005,-15.82,1770467841.913968
-0.518256,-0.514108,1.479616,-61.669998,-166.529999,-19.67,1770467841.921983
-0.232776,-0.328912,1.263188,-64.190002,-186.619995,-9.8,1770467841.929961
0.000488,-0.182268,1.056764,-59.360001,-196.419998,-3.71,1770467841.937958
0.150548,-0.037332,0.8601,-45.150002,-197.75,9.59,1770467841.946024
0.193492,0.007808,0.720288,-34.580002,-187.320007,13.51,1770467841.95399
0.303292,0.198128,0.52704,-21.559999,-182.839996,5.32,1770467841.961966
0.549976,0.467748,0.33428,2.66,-182.210007,6.37,1770467841.97003
0.427,0.411384,0.27938,31.57,-165.759995,33.950001,1770467841.978442
0.424804,0.408944,0.19764,48.720001,-144.059998,40.599998,1770467841.986155
0.40626,0.439932,0.090036,57.259998,-120.120003,45.779999,1770467841.994115
0.379908,0.482388,-0.006832,61.880001,-91.349998,47.110001,1770467842.00203
0.340868,0.510692,-0.079788,65.519997,-58.450001,46.900002,1770467842.009988
0.298656,0.521428,-0.121268,58.66,-23.870001,46.689999,1770467842.018012
0.283284,0.502152,-0.13908,51.099998,5.6,44.52,1770467842.025958
0.28182,0.470188,-0.122976,42.209999,33.669998,37.450001,1770467842.033938
0.284504,0.448228,-0.044164,28.91,57.400002,32.060001,1770467842.041964
0.310612,0.420168,0.140788,23.870001,77.0,27.16,1770467842.049957
0.381372,0.356972,0.452864,17.08,91.419998,25.549999,1770467842.058005
0.442128,0.244732,0.84302,14.56,104.650002,18.27,1770467842.066066
0.427976,0.113704,1.264652,10.99,124.599998,10.43,1770467842.073968
0.378932,-0.076128,1.59942,9.52,152.949997,4.76,1770467842.081962
0.40748,-0.34282,1.791448,8.12,156.380005,9.38,1770467842.089955
0.336964,-0.549976,2.047404,1.54,138.949997,24.780001,1770467842.097963
0.061976,-0.52704,2.2814,14.0,132.160004,43.540001,1770467842.106077
-0.142252,-0.606096,2.448784,23.66,126.839996,52.360001,1770467842.113966
-0.456524,-0.792024,2.472452,8.33,138.179993,25.549999,1770467842.121958
-0.564372,-0.72224,2.242116,11.41,130.830002,24.290001,1770467842.129955
-0.698816,-0.560956,1.98128,8.68,120.470001,11.2,1770467842.137951
-0.791292,-0.374296,1.733376,11.41,105.980003,6.93,1770467842.145956
-0.807396,-0.165188,1.515728,10.22,89.110001,-4.06,1770467842.154034
-0.751276,0.025132,1.376404,0.56,66.080002,-7.14,1770467842.161988
-0.66246,0.178608,1.269776,-8.19,41.439999,-10.5,1770467842.169983
-0.567788,0.2745,1.153876,-20.299999,23.24,-13.3,1770467842.177955
-0.49166,0.318664,1.027972,-26.459999,4.69,-12.95,1770467842.185994
-0.410164,0.334036,0.909388,-30.309999,-13.58,-16.870001,1770467842.19404
-0.34038,0.299388,0.787876,-31.57,-29.68,-16.66,1770467842.20198
-0.305732,0.323056,0.644404,-20.440001,-46.34,-21.35,1770467842.209957
-0.262544,0.279136,0.528016,-12.46,-61.32,-28.98,1770467842.217958
-0.229604,0.246928,0.416508,1.33,-74.480003,-34.299999,1770467842.226035
-0.105164,0.334036,0.281332,20.440001,-86.449997,-22.049999,1770467842.23398
-0.074908,0.388692,0.214476,31.43,-100.239998,-6.23,1770467842.241955
-0.058316,0.415532,0.156404,39.759998,-110.459999,-0.7,1770467842.249953
-0.03172,0.458964,0.09394,38.639999,-114.660004,6.79,1770467842.257981
0.014396,0.5307,0.035136,37.310001,-116.410004,13.86,1770467842.265959
0.077592,0.604144,0.00488,39.689999,-112.839996,19.040001,1770467842.274022
0.13664,0.643428,0.011712,43.75,-105.419998,26.879999,1770467842.281971
0.188612,0.686616,0.041236,45.990002,-92.889999,29.82,1770467842.289956
0.238388,0.73566,0.095892,44.240002,-73.43,33.529999,1770467842.297951
0.305244,0.774212,0.22692,35.98,-46.900002,32.41,1770467842.306099
0.36112,0.75762,0.434076,23.799999,-14.42,26.110001,1770467842.313983
0.394548,0.705648,0.7015,1.68,24.780001,28.700001,1770467842.321976
0.36234,0.59902,0.962336,-20.09,62.509998,21.84,1770467842.329996
0.285236,0.41236,1.199504,-45.990002,100.940002,13.02,1770467842.338038
0.167628,0.180804,1.459364,-53.689999,135.100006,3.08,1770467842.345968
-0.024644,0.00976,1.868308,-53.900002,167.929993,-10.36,1770467842.353962
-0.210328,-0.148596,2.366068,-51.73,197.330002,-12.04,1770467842.361997
-0.39162,-0.430172,2.78892,-45.009998,206.639999,-12.04,1770467842.369961
-0.731512,-0.708332,2.88652,-22.82,210.070007,6.23,1770467842.377998
-1.047492,-0.963556,2.7084,-16.450001,169.539993,-12.6,1770467842.38602
-1.175348,-0.818376,2.353624,-25.41,90.93,-14.28,1770467842.393948
-1.170956,-0.613904,1.924184,-44.799999,9.87,-18.549999,1770467842.402002
-1.000156,-0.445788,1.5677,-51.099998,-64.68,-14.84,1770467842.410051
-0.7259,-0.267424,1.339072,-54.529999,-120.75,-14.98,1770467842.418383
-0.441152,-0.100284,1.169248,-53.200001,-153.720001,-12.81,1770467842.425972
-0.2013,0.047092,0.99552,-47.529999,-177.309998,-12.53,1770467842.433963
-0.014396,0.159088,0.848388,-39.34,-189.630005,-4.27,1770467842.441963
0.048312,0.129076,0.729072,-32.200001,-187.529999,-4.76,1770467842.450032
0.204472,0.182512,0.575108,-27.58,-181.720001,-16.24,1770467842.457983
0.34526,0.359412,0.379664,7.98,-180.320007,24.99,1770467842.465963
0.39528,0.30134,0.278404,27.09,-161.839996,41.299999,1770467842.473961
0.387716,0.278404,0.158356,40.459999,-136.779999,53.830002,1770467842.482255
0.379908,0.272304,0.064416,51.099998,-107.449997,55.509998,1770467842.489963
0.367952,0.277672,0.011956,55.650002,-77.419998,57.540001,1770467842.498016
0.35014,0.273036,-0.013664,57.049999,-44.099998,53.759998,1770467842.505981
0.332084,0.26718,-0.028792,54.669998,-10.92,45.43,1770467842.513967
0.319396,0.266692,-0.038308,50.400002,21.0,42.700001,1770467842.521969
0.307684,0.288652,-0.004392,50.189999,53.41,36.119999,1770467842.52997
0.305244,0.307928,0.099552,43.889999,80.150002,32.48,1770467842.537957
0.325008,0.333304,0.29402,37.310001,104.370003,30.940001,1770467842.546062
0.382104,0.348676,0.61366,28.139999,123.620003,22.75,1770467842.553958
0.420656,0.371368,1.003328,13.02,141.610001,13.51,1770467842.561974
0.403332,0.257664,1.354932,3.08,167.160004,2.31,1770467842.569954
0.335744,0.057584,1.56282,-6.37,190.820007,-3.15,1770467842.577975
0.274744,-0.1708,1.69946,-10.08,198.380005,-0.91,1770467842.586014
0.189344,-0.310612,1.921988,-13.23,187.179993,11.69,1770467842.593972
-0.055144,-0.3965,2.254072,-18.41,180.740005,24.290001,1770467842.601982
-0.240828,-0.474092,2.380708,-15.75,169.190002,35.700001,1770467842.60996
-0.532652,-0.542656,2.395104,-13.79,154.490005,47.32,1770467842.617969
-0.76128,-0.684908,2.196976,-26.110001,134.889999,19.74,1770467842.625997
-0.87352,-0.612928,1.929064,-28.559999,109.199997,11.9,1770467842.633975
-0.9455,-0.437736,1.673596,-31.43,83.510002,1.05,1770467842.641963
-0.971852,-0.263032,1.48108,-28.629999,59.290001,-1.61,1770467842.649964
-0.929396,-0.070516,1.336388,-38.220001,38.779999,-15.33,1770467842.657963
-0.841312,0.117364,1.215364,-41.790001,18.83,-23.799999,1770467842.666007
-0.730292,0.23424,1.082384,-46.34,1.19,-33.529999,1770467842.673986
-0.607316,0.282796,0.9272,-50.889999,-18.129999,-36.189999,1770467842.682059
-0.502884,0.307196,0.778848,-42.77,-39.130001,-40.110001,1770467842.689949
-0.398696,0.303292,0.648064,-34.299999,-58.59,-44.59,1770467842.697946
-0.319152,0.28304,0.531188,-16.1,-74.620003,-45.360001,1770467842.705981
-0.260836,0.241072,0.419924,-1.33,-87.080002,-55.580002,1770467842.713968
-0.144204,0.347944,0.285968,17.639999,-92.75,-43.470001,1770467842.721988
-0.088084,0.434808,0.2196,44.450001,-100.309998,-32.689999,1770467842.729965
-0.047092,0.459208,0.239852,58.939999,-104.089996,-18.34,1770467842.738004
-0.015616,0.50996,0.225456,66.290001,-106.75,-3.08,1770467842.74598
0.020496,0.553636,0.163968,67.410004,-110.32,9.38,1770467842.754343
0.06954,0.580476,0.105652,67.760002,-116.550003,19.25,1770467842.761967
0.1037,0.607316,0.0732,74.550003,-120.889999,25.34,1770467842.769957
0.118828,0.615612,0.062464,73.919998,-117.32,35.98,1770467842.77796
0.134444,0.612684,0.064416,70.349998,-104.019997,40.669998,1770467842.786009
0.146888,0.603168,0.097356,55.509998,-88.410004,42.07,1770467842.794044
0.172996,0.581696,0.23546,33.740002,-63.77,34.650002,1770467842.80227
0.210816,0.546804,0.493856,13.86,-31.780001,20.860001,1770467842.809961
0.230336,0.475068,0.8174,-3.92,12.32,8.05,1770467842.817966
0.178608,0.337208,1.126304,-16.309999,57.470001,-5.74,1770467842.825951
0.033184,0.141032,1.418372,-26.530001,98.839996,-19.459999,1770467842.83408
-0.147376,0.002928,1.776076,-31.57,133.070007,-26.040001,1770467842.841961
-0.349164,-0.122244,2.288232,-27.51,152.179993,-32.619999,1770467842.849961
-0.59048,-0.374296,2.76574,-28.42,157.360001,-27.09,1770467842.857958
-0.9272,-0.74786,2.89262,-25.129999,149.729996,-31.15,1770467842.865963
-1.036024,-0.902312,2.616656,-17.99,107.589996,-31.709999,1770467842.87407
-1.078236,-0.907924,2.356064,-18.76,42.0,-31.360001,1770467842.881961
-1.037,-0.72224,2.076684,-25.9,-30.52,-29.120001,1770467842.889952
-0.868396,-0.539728,1.787056,-38.360001,-89.669998,-18.059999,1770467842.897941
-0.598776,-0.372832,1.566968,-48.369999,-131.389999,-15.96,1770467842.905969
-0.325252,-0.227164,1.355664,-56.0,-162.330002,-9.87,1770467842.913967
-0.095892,-0.098576,1.09922,-62.23,-180.039993,-4.2,1770467842.922007
0.075396,0.023912,0.86742,-57.68,-191.869995,1.61,1770467842.92997
0.1342,0.071248,0.69906,-55.580002,-187.529999,4.69,1770467842.938002
0.251564,0.156404,0.548024,-47.110001,-182.419998,-3.99,1770467842.946028
0.342332,0.152744,0.424072,-37.66,-175.839996,-15.26,1770467842.953965
0.433832,0.28914,0.269132,-8.19,-157.850006,26.110001,1770467842.96196
0.430416,0.304756,0.139568,13.44,-135.800003,39.34,1770467842.970168
0.431392,0.304268,0.023668,19.6,-111.300003,47.810001,1770467842.978365
0.426512,0.318908,-0.053924,30.450001,-86.800003,50.400002,1770467842.986168
0.402112,0.33428,-0.103212,33.32,-57.540001,51.59,1770467842.993975
0.368928,0.339404,-0.115656,38.220001,-23.870001,49.91,1770467843.002098
0.353312,0.326472,-0.0915,47.18,10.78,43.610001,1770467843.009973
0.338916,0.31232,-0.007808,49.0,43.75,40.810001,1770467843.017966
0.340868,0.313784,0.113704,48.509998,70.489998,33.950001,1770467843.025962
0.344528,0.307684,0.289628,42.0,96.110001,29.82,1770467843.033973
0.368196,0.292556,0.532408,33.32,116.620003,24.08,1770467843.041973
0.40016,0.274988,0.819108,26.32,133.490005,16.799999,1770467843.050122
0.396744,0.212768,1.09434,20.65,151.410004,0.07,1770467843.057951
0.360876,0.091012,1.294908,20.299999,171.850006,-9.17,1770467843.065957
0.283772,-0.075396,1.403732,23.52,187.25,-19.459999,1770467843.073957
0.239364,-0.234728,1.523048,25.969999,191.869995,-12.6,1770467843.081945
0.167384,-0.400404,1.8178,28.91,178.919998,3.22,1770467843.089955
-0.048556,-0.469944,2.1899,27.440001,173.809998,16.450001,1770467843.097943
-0.188856,-0.5185,2.431704,30.799999,162.050003,34.439999,1770467843.10608
-0.72346,-0.773724,2.556876,16.1,161.070007,19.809999,1770467843.11395
-0.706868,-0.634888,2.262124,2.03,143.5,5.81,1770467843.121959
-0.826672,-0.496784,2.022272,-8.75,121.519997,0.21,1770467843.129954
-0.884744,-0.323056,1.771684,-18.690001,99.050003,-9.03,1770467843.137953
-0.897188,-0.16348,1.562576,-26.459999,76.790001,-10.15,1770467843.145952
-0.847656,-0.010004,1.409588,-37.869999,54.669998,-20.370001,1770467843.153984
-0.774456,0.128344,1.263188,-49.419998,35.560001,-22.26,1770467843.161958
-0.688812,0.215696,1.100928,-56.419998,16.309999,-27.09,1770467843.170195
-0.595116,0.252784,0.9272,-58.450001,-0.84,-32.689999,1770467843.177952
-0.516304,0.275964,0.776164,-53.970001,-16.59,-38.57,1770467843.185961
-0.438956,0.285724,0.65514,-46.41,-32.27,-42.84,1770467843.194045
-0.36112,0.276452,0.543144,-35.630001,-45.709999,-46.619999,1770467843.202025
-0.304268,0.293776,0.45506,-23.799999,-56.77,-53.689999,1770467843.209954
-0.265472,0.270352,0.375516,-11.9,-65.099998,-61.110001,1770467843.217949
-0.132492,0.353556,0.255956,0.7,-68.459999,-54.950001,1770467843.225948
-0.047092,0.507764,0.19276,18.34,-81.900002,-38.220001,1770467843.233965
-0.082716,0.549976,0.17202,26.389999,-91.139999,-10.71,1770467843.241955
-0.072956,0.615856,0.123708,29.26,-101.919998,-1.82,1770467843.249951
-0.031476,0.651236,0.083204,31.85,-111.650002,14.42,1770467843.257949
0.00366,0.646356,0.07686,34.299999,-116.760002,17.219999,1770467843.26595
0.065392,0.639768,0.078812,35.560001,-118.510002,30.17,1770467843.274066
0.102236,0.598776,0.115412,36.119999,-113.889999,39.27,1770467843.28194
0.13786,0.548512,0.204472,30.870001,-94.220001,39.130001,1770467843.28995
0.185928,0.490684,0.367952,21.209999,-63.91,35.700001,1770467843.297932
0.238876,0.423584,0.595604,8.75,-22.75,21.280001,1770467843.305972
0.273036,0.335744,0.84424,-1.33,24.43,11.55,1770467843.313959
0.247416,0.19154,1.035536,-8.89,73.779999,0.14,1770467843.32197
0.129076,0.026596,1.18828,-5.25,119.139999,-5.88,1770467843.330096
-0.0488,-0.05246,1.439112,1.68,156.169998,-15.54,1770467843.337951
-0.311832,-0.092964,1.878556,16.309999,184.589996,-19.459999,1770467843.345959
-0.668804,-0.309636,2.340692,19.459999,198.380005,-14.49,1770467843.353959
-1.090192,-0.668316,2.753784,17.01,189.910004,-11.9,1770467843.361985
-1.195356,-0.721752,2.560292,19.67,149.520004,-14.63,1770467843.369978
-1.3115,-0.766648,2.265784,8.19,85.050003,-9.87,1770467843.377968
-1.326872,-0.74664,2.04472,-7.56,5.25,-10.15,1770467843.38596
-1.195112,-0.652456,1.799256,-23.24,-65.309998,-15.4,1770467843.393969
-0.941352,-0.505568,1.597712,-42.98,-121.449997,-12.81,1770467843.402055
-0.652944,-0.347212,1.43838,-56.0,-162.399994,-23.379999,1770467843.409985
-0.36478,-0.224968,1.285392,-70.769997,-186.619995,-22.120001,1770467843.417961
-0.117608,-0.109312,1.111908,-78.120003,-202.649994,-20.93,1770467843.42603
0.073932,0.000732,0.934764,-80.010002,-209.649994,-16.309999,1770467843.433967
0.133956,0.056852,0.791048,-80.010002,-202.160004,-11.06,1770467843.442078
0.310612,0.112972,0.66856,-74.550003,-194.320007,-18.690001,1770467843.449994
0.40016,0.10248,0.576816,-63.0,-185.850006,-18.41,1770467843.457952
0.528504,0.246684,0.42822,-31.57,-168.979996,21.280001,1770467843.465955
0.518012,0.285236,0.305976,-13.93,-145.320007,26.25,1770467843.473959
0.496784,0.331108,0.195932,-4.76,-118.230003,38.220001,1770467843.481983
0.45872,0.371368,0.10248,1.12,-91.699997,41.580002,1770467843.489991
0.417972,0.385764,0.03782,1.12,-59.43,42.209999,1770467843.49795
0.38674,0.34282,0.006832,-0.28,-24.780001,45.849998,1770467843.50597
0.363072,0.245708,-0.000732,0.7,10.08,35.419998,1770467843.513947
0.35136,0.170556,0.008784,6.37,46.34,35.91,1770467843.521963
0.34038,0.124928,0.055876,17.43,82.739998,24.92,1770467843.529958
0.332328,0.116876,0.188368,29.68,116.410004,23.309999,1770467843.537966
0.349896,0.136884,0.42212,40.32,143.710007,13.3,1770467843.546011
0.393328,0.14762,0.747372,42.700001,166.600006,12.67,1770467843.55402
0.39528,0.135664,1.061888,39.970001,188.509995,2.31,1770467843.561957
0.343064,0.068808,1.225856,45.849998,211.259995,-5.32,1770467843.569958
0.235216,-0.053436,1.311012,51.099998,228.199997,0.21,1770467843.577956
0.077592,-0.168848,1.413492,64.330002,242.619995,3.36,1770467843.586005
-0.048556,-0.20862,1.6165,71.400002,238.910004,17.709999,1770467843.594043
-0.23668,-0.27572,1.98128,70.629997,214.130005,29.959999,1770467843.602215
-0.517524,-0.303048,2.243336,59.220001,177.940002,50.68,1770467843.609969
-0.780556,-0.401868,2.270908,36.189999,141.330002,66.220001,1770467843.617968
-1.064328,-0.586332,2.154764,11.2,108.220001,26.459999,1770467843.626011
-1.118252,-0.630496,1.909544,1.54,72.730003,28.77,1770467843.634102
-1.123864,-0.573888,1.681892,-5.88,43.540001,13.09,1770467843.641968
-1.083604,-0.4758,1.522804,-10.71,22.68,-2.8,1770467843.649967
-0.996984,-0.325008,1.400316,-15.05,7.77,-11.13,1770467843.657951
-0.8845,-0.157136,1.288564,-23.799999,0.07,-24.639999,1770467843.666001
-0.758596,0.005368,1.175104,-27.65,-7.0,-35.07,1770467843.673973
-0.645136,0.138592,1.035536,-31.780001,-15.89,-38.779999,1770467843.681984
-0.546072,0.219356,0.892308,-29.889999,-26.110001,-43.82,1770467843.690075
-0.466284,0.278648,0.780312,-22.540001,-35.91,-43.470001,1770467843.697937
-0.383568,0.309392,0.704428,-12.46,-48.23,-47.599998,1770467843.705971
-0.315736,0.315492,0.639524,-1.89,-59.43,-44.799999,1770467843.713962
-0.284016,0.302316,0.574376,4.97,-68.389999,-51.240002,1770467843.722062
-0.300608,0.338916,0.446764,13.3,-73.080002,-49.209999,1770467843.730005
-0.142984,0.461404,0.3538,23.17,-85.540001,-29.75,1770467843.737958
-0.109068,0.528016,0.30378,34.860001,-96.879997,-16.450001,1770467843.746025
-0.099064,0.5673,0.260104,41.650002,-105.419998,3.01,1770467843.75396
-0.079544,0.58926,0.20496,45.779999,-109.620003,17.709999,1770467843.761961
-0.056364,0.6161,0.138104,54.880001,-116.620003,33.18,1770467843.769957
-0.021472,0.619028,0.101016,63.77,-125.440002,45.990002,1770467843.777984
0.006344,0.568764,0.116632,70.769997,-127.959999,50.330002,1770467843.785948
0.043188,0.515572,0.143716,72.449997,-126.559998,47.740002,1770467843.794059
0.064904,0.483608,0.180316,63.91,-117.18,42.279999,1770467843.801968
0.071492,0.487756,0.235948,47.740002,-100.449997,38.5,1770467843.809981
0.075884,0.5246,0.328424,18.200001,-76.650002,29.469999,1770467843.817961
0.087108,0.522648,0.488976,-11.34,-49.209999,17.57,1770467843.826056
0.088816,0.458232,0.712236,-35.209999,-15.75,9.87,1770467843.833963
0.04636,0.293532,0.979172,-41.509998,25.969999,2.45,1770467843.841963
-0.04758,0.077348,1.287832,-29.540001,63.77,-7.56,1770467843.849967
-0.166896,-0.066612,1.704584,-15.12,93.169998,-3.29,1770467843.857995
-0.336232,-0.17934,2.235528,-7.0,102.269997,-8.47,1770467843.866001
-0.544608,-0.35502,2.707668,-11.69,98.419998,-3.08,1770467843.873961
-0.83692,-0.685884,2.82308,-31.57,86.940002,-9.45,1770467843.881962
-0.971364,-0.903776,2.540528,-30.870001,56.419998,-19.6,1770467843.889959
-0.990152,-1.020652,2.31556,-30.309999,12.46,-19.25,1770467843.897936
-0.885232,-0.899872,2.031788,-30.1,-34.860001,-23.030001,1770467843.906102
-0.680516,-0.709552,1.794376,-33.810001,-75.809998,-25.41,1770467843.913955
-0.411384,-0.515816,1.601128,-42.139999,-109.970001,-19.879999,1770467843.922007
-0.16348,-0.324764,1.40422,-40.040001,-131.389999,-12.25,1770467843.930062
0.049288,-0.172752,1.222684,-36.119999,-143.779999,-0.14,1770467843.937956
0.175192,-0.032696,1.042124,-28.42,-147.070007,8.96,1770467843.945973
0.224236,0.021228,0.872788,-25.200001,-136.710007,15.12,1770467843.954101
0.351604,0.166652,0.666852,-18.549999,-136.429993,5.95,1770467843.961942
0.558516,0.563884,0.454816,3.57,-135.869995,25.129999,1770467843.97013
0.420168,0.455792,0.439688,14.07,-123.339996,38.919998,1770467843.978693
0.4026,0.483608,0.36478,12.88,-108.639999,46.970001,1770467843.986334
0.384788,0.4941,0.269864,11.41,-88.129997,46.200001,1770467843.994013
0.36844,0.47458,0.187392,3.78,-62.580002,47.669998,1770467844.002079
0.346724,0.433832,0.118096,0.56,-37.240002,49.700001,1770467844.010012
0.314516,0.375028,0.053192,-7.35,-7.77,45.639999,1770467844.018035
0.272304,0.30744,-0.007564,-11.2,20.65,40.459999,1770467844.025947
0.241804,0.242292,-0.064416,-9.87,45.779999,35.139999,1770467844.033959
0.214476,0.196664,-0.068808,-7.35,65.589996,27.02,1770467844.041967
0.198372,0.152744,-0.000976,-1.26,84.699997,20.02,1770467844.049968
0.198616,0.129808,0.160308,5.74,102.970001,11.62,1770467844.05811
0.2318,0.106628,0.412604,8.47,115.709999,4.34,1770467844.065971
0.269132,0.089304,0.742248,10.92,126.629997,-7.14,1770467844.073961
0.283772,0.041236,1.071892,11.55,135.169998,-12.25,1770467844.081963
0.242536,-0.050264,1.314184,18.200001,149.729996,-20.719999,1770467844.090046
0.177388,-0.158844,1.485228,28.0,167.929993,-16.17,1770467844.097941
0.119316,-0.232776,1.639924,41.02,178.919998,-8.12,1770467844.10597
0.061244,-0.291824,1.85806,51.450001,174.089996,4.76,1770467844.113993
-0.08174,-0.413336,2.188192,47.740002,155.259995,24.5,1770467844.121952
-0.250832,-0.461404,2.346304,45.779999,130.479996,39.689999,1770467844.12995
-0.471896,-0.411872,2.261392,40.32,101.5,58.66,1770467844.137955
-0.728584,-0.589992,2.088396,14.7,91.489998,31.99,1770467844.145954
-0.754204,-0.55754,1.875384,10.01,78.610001,16.309999,1770467844.153998
-0.801784,-0.425536,1.692628,5.67,68.879997,17.709999,1770467844.161989
-0.81618,-0.252052,1.565748,4.13,60.27,8.47,1770467844.169967
-0.79544,-0.028792,1.478884,-6.79,52.290001,3.99,1770467844.178003
-0.741516,0.159576,1.403,-17.92,45.43,-3.43,1770467844.185957
-0.673684,0.307684,1.279292,-29.26,36.330002,-12.18,1770467844.193945
-0.615368,0.4087,1.121668,-35.419998,28.35,-10.85,1770467844.201959
-0.565592,0.432612,0.972584,-30.450001,14.63,-19.32,1770467844.209999
-0.559248,0.494588,0.8357,-22.889999,2.73,-27.440001,1770467844.218057
-0.470676,0.444324,0.76494,-3.57,-11.69,-37.380001,1770467844.225954
-0.32452,0.560224,0.666608,19.18,-26.67,-19.110001,1770467844.23396
-0.322324,0.518012,0.621956,29.68,-42.0,-9.17,1770467844.241952
-0.272548,0.48068,0.528992,37.099998,-58.310001,-11.9,1770467844.249948
-0.216916,0.421388,0.425292,33.32,-77.419998,-8.89,1770467844.257945
-0.1586,0.373076,0.324764,24.43,-95.129997,-12.04,1770467844.265942
-0.095648,0.343552,0.238144,13.02,-111.440002,-10.01,1770467844.273957
-0.04514,0.325984,0.14884,2.03,-122.779999,-7.56,1770467844.281967
-0.020496,0.292068,0.07686,-4.48,-131.880005,-5.95,1770467844.289965
0.015128,0.2623,0.007564,-14.14,-134.960007,-2.17,1770467844.298002
0.132492,0.280844,-0.036112,-11.9,-137.130005,10.15,1770467844.30599
0.144204,0.258396,-0.019276,-4.76,-127.75,21.42,1770467844.31396
0.172996,0.253028,0.050508,3.43,-105.839996,24.92,1770467844.32196
0.199836,0.282552,0.2013,12.81,-75.459999,22.75,1770467844.329962
0.222284,0.327936,0.426512,13.23,-33.110001,15.68,1770467844.3381
0.238632,0.35624,0.708332,14.21,12.53,3.99,1770467844.345951
0.228628,0.305732,1.018212,13.23,64.75,0.98,1770467844.353953
0.139568,0.198372,1.268312,17.99,115.639999,-0.63,1770467844.36196
-0.057828,0.088328,1.50792,28.98,157.149994,0.63,1770467844.369964
-0.31842,0.0244,1.81292,28.77,186.830002,2.73,1770467844.378009
-0.558028,-0.031232,2.110112,23.1,184.729996,12.6,1770467844.385986
-1.007964,-0.222284,2.390224,15.68,165.479996,17.57,1770467844.393948
-1.298812,-0.562176,2.491484,-7.35,125.370003,-3.22,1770467844.401963
-1.369084,-0.708332,2.29604,-10.78,63.630001,-7.7,1770467844.410095
-1.36274,-0.7503,2.088152,-19.32,-6.72,-18.76,1770467844.417985
-1.211216,-0.720288,1.907104,-23.24,-75.389999,-18.129999,1770467844.42598
-0.939644,-0.573644,1.769732,-32.34,-125.790001,-25.83,1770467844.433964
-0.605364,-0.385764,1.660908,-41.790001,-159.179993,-25.76,1770467844.442072
-0.2867,-0.204472,1.553304,-48.23,-182.070007,-25.41,1770467844.449957
-0.02074,-0.059048,1.398608,-56.700001,-191.449997,-21.700001,1770467844.457955
0.133956,0.048556,1.192916,-58.310001,-193.830002,-21.91,1770467844.465959
0.251808,0.090524,0.960628,-63.0,-186.410004,-23.17,1770467844.474072
0.369416,0.204472,0.76738,-60.970001,-191.940002,-38.009998,1770467844.481955
0.536556,0.471652,0.56364,-39.34,-183.050003,-13.72,1770467844.490067
0.571448,0.377224,0.553636,-28.98,-168.279999,9.17,1770467844.497943
0.597556,0.368684,0.471408,-20.790001,-147.070007,21.07,1770467844.505976
0.594384,0.355996,0.358924,-16.450001,-120.540001,32.27,1770467844.513959
0.566812,0.345992,0.250832,-9.73,-88.410004,35.700001,1770467844.521958
0.523136,0.34038,0.15738,-5.81,-55.299999,40.18,1770467844.529982
0.472628,0.3355,0.092232,-1.19,-21.0,38.709999,1770467844.538049
0.418216,0.30012,0.057828,2.59,13.51,33.32,1770467844.545985
0.36844,0.25132,0.035136,5.18,46.130001,33.529999,1770467844.553958
0.327448,0.194224,0.018056,7.7,75.110001,25.34,1770467844.561957
0.278892,0.171288,0.022936,14.21,102.480003,19.6,1770467844.569958
0.24034,0.161284,0.077348,19.18,123.970001,15.54,1770467844.577992
0.22326,0.1525,0.203496,26.950001,143.220001,11.06,1770467844.585997
0.232288,0.142496,0.411628,28.629999,160.720001,7.49,1770467844.594085
0.253272,0.133468,0.70272,29.68,178.080002,3.08,1770467844.601959
0.24034,0.107848,0.966728,38.849998,194.949997,-4.83,1770467844.60997
0.178852,0.030012,1.146556,45.849998,211.259995,-8.05,1770467844.617972
0.091744,-0.059292,1.291004,60.200001,224.139999,-3.5,1770467844.626003
-0.028548,-0.098088,1.449848,68.110001,230.160004,-0.35,1770467844.633967
-0.17202,-0.084668,1.661396,71.75,219.800003,12.32,1770467844.641964
-0.35014,-0.065392,1.949316,67.269997,191.520004,22.26,1770467844.649956
-0.52094,-0.07686,2.104988,58.310001,150.639999,40.459999,1770467844.657953
-0.747128,-0.116632,2.13622,52.779999,101.080002,53.060001,1770467844.665988
-0.960628,-0.282552,2.152568,36.540001,71.400002,49.490002,1770467844.674001
-1.09922,-0.307196,1.948096,25.200001,39.34,17.709999,1770467844.681967
-1.092388,-0.268156,1.782176,21.35,11.27,10.29,1770467844.689962
-1.05042,-0.14884,1.642364,15.54,-9.8,-1.4,1770467844.697939
-0.976488,0.002684,1.523048,13.65,-18.76,-7.07,1770467844.706154
-0.867664,0.154696,1.417396,8.33,-24.01,-12.39,1770467844.713965
-0.758352,0.327448,1.297592,5.88,-28.209999,-17.57,1770467844.721964
-0.639036,0.418948,1.178276,7.0,-38.150002,-19.25,1770467844.729962
-0.538996,0.441396,1.053348,2.03,-51.869999,-27.299999,1770467844.737963
-0.451888,0.385276,0.91988,3.08,-69.650002,-29.540001,1770467844.746008
-0.371856,0.333304,0.751764,2.8,-88.199997,-39.970001,1770467844.753959
-0.22814,0.383812,0.589992,7.63,-108.220001,-28.700001,1770467844.761961
-0.19154,0.37454,0.510448,11.48,-126.980003,-25.969999,1770467844.769958
-0.140788,0.402356,0.421632,9.52,-136.850006,-26.32,1770467844.777964
-0.0915,0.426756,0.333304,12.18,-137.550003,-28.91,1770467844.786009
-0.04148,0.453108,0.250588,10.15,-133.770004,-32.830002,1770467844.793954
0.074908,0.524356,0.173972,17.01,-133.419998,-23.24,1770467844.801961
0.08906,0.521184,0.156404,20.02,-127.82,-20.93,1770467844.810003
0.1159,0.49532,0.133468,15.75,-121.309998,-15.61,1770467844.818048
0.142984,0.43676,0.108824,15.75,-114.449997,-15.19,1770467844.825964
0.180804,0.360388,0.122,17.57,-105.209999,-21.0,1770467844.833957
0.222528,0.259128,0.172996,17.99,-92.330002,-21.35,1770467844.841968
0.259372,0.149084,0.265228,21.0,-76.089996,-28.0,1770467844.849986
0.284504,0.068808,0.406016,19.879999,-55.369999,-33.389999,1770467844.857961
0.284748,0.022692,0.587796,15.96,-32.48,-34.23,1770467844.866076
0.2379,-0.000488,0.799588,9.66,-8.12,-38.709999,1770467844.873955
0.152988,-0.070516,1.001864,-0.63,15.68,-38.43,1770467844.881959
0.077104,-0.124196,1.25172,0.91,38.009998,-39.549999,1770467844.890043
-0.011468,-0.187148,1.620648,2.31,53.200001,-37.310001,1770467844.897943
-0.079544,-0.219112,2.05692,1.54,52.290001,-40.459999,1770467844.905948
-0.219356,-0.263764,2.422188,-11.76,47.32,-42.349998,1770467844.913975
-0.324764,-0.351604,2.515884,-23.799999,36.75,-26.6,1770467844.921959
-0.396744,-0.379664,2.422432,-26.32,22.33,-17.08,1770467844.92999
-0.516792,-0.530456,2.301896,-35.0,16.66,-14.84,1770467844.937956
-0.467504,-0.531188,2.016416,-40.040001,3.85,-32.48,1770467844.94601
-0.338916,-0.391864,1.760948,-40.25,-12.04,-28.559999,1770467844.954064
-0.235216,-0.197884,1.567944,-43.259998,-25.48,-19.950001,1770467844.961964
-0.138592,-0.008296,1.422764,-44.450001,-35.91,-14.0,1770467844.969983
-0.041236,0.122488,1.286368,-51.029999,-43.540001,-7.91,1770467844.97806
0.035868,0.195444,1.156072,-56.91,-45.43,-3.15,1770467844.986903
0.061732,0.18544,1.017236,-62.860001,-40.669998,-5.53,1770467844.994163
0.101748,0.182268,0.854,-65.099998,-34.93,-8.61,1770467845.00197
0.174704,0.288408,0.677344,-55.509998,-30.66,0.42,1770467845.010001
0.244976,0.302316,0.559004,-45.220001,-28.139999,38.080002,1770467845.018003
0.21472,0.321836,0.458232,-40.529999,-22.75,39.549999,1770467845.026104
0.204716,0.356972,0.366,-38.220001,-20.65,49.139999,1770467845.033938
0.19276,0.384788,0.283772,-35.560001,-15.54,49.209999,1770467845.041961
0.172752,0.417972,0.218624,-24.57,-12.67,50.049999,1770467845.049971
0.165676,0.412116,0.1891,-18.969999,-7.56,51.029999,1770467845.057946
0.152012,0.37942,0.170556,-10.99,0.91,47.32,1770467845.065996
0.142496,0.316468,0.164212,-5.32,11.76,46.549999,1770467845.073979
0.134444,0.262544,0.165188,0.98,24.85,41.720001,1770467845.081958
0.116144,0.225212,0.156404,11.55,37.240002,35.139999,1770467845.089954
0.09394,0.210328,0.161772,20.65,50.959999,24.99,1770467845.097986
0.083448,0.191052,0.217404,29.959999,63.630001,19.18,1770467845.106029
0.08418,0.17812,0.337208,38.43,70.629997,8.47,1770467845.113964
0.0976,0.180316,0.560956,42.84,77.980003,2.31,1770467845.121939
0.104432,0.203496,0.85034,49.77,85.050003,-8.89,1770467845.12995
0.09516,0.190808,1.12972,52.080002,92.190002,-16.73,1770467845.13795
0.057828,0.135908,1.30296,60.970001,103.529999,-17.43,1770467845.14603
0.008052,0.062952,1.435696,73.290001,114.029999,-17.57,1770467845.153956
-0.02928,-0.009272,1.623576,83.440002,115.849998,-6.3,1770467845.161955
-0.087352,-0.073932,1.902956,88.129997,101.639999,8.47,1770467845.169948
-0.222528,-0.114192,2.134756,79.449997,80.5,28.49,1770467845.177971
-0.348188,-0.117852,2.213812,71.959999,62.16,36.82,1770467845.185955
-0.442372,-0.153232,2.19478,59.849998,40.599998,45.849998,1770467845.193948
-0.594384,-0.234728,2.103036,43.330002,42.07,47.459999,1770467845.20196
-0.826672,-0.368196,1.94712,25.76,45.57,34.860001,1770467845.210257
-0.69906,-0.235704,1.748992,17.99,44.099998,13.51,1770467845.217883
-0.719556,-0.114924,1.60308,11.76,43.119999,2.87,1770467845.225951
-0.694668,0.053436,1.493036,1.68,36.400002,-4.97,1770467845.233947
-0.639036,0.21106,1.383236,-14.7,25.200001,-10.5,1770467845.241956
-0.570228,0.321348,1.245132,-29.540001,7.63,-15.75,1770467845.249954
-0.48922,0.380884,1.109224,-46.34,-9.8,-17.219999,1770467845.257949
-0.406504,0.387228,0.980392,-57.540001,-27.440001,-25.48,1770467845.265956
-0.316712,0.364292,0.855464,-62.790001,-41.790001,-31.57,1770467845.274034
-0.23302,0.340136,0.76006,-60.970001,-51.380001,-37.52,1770467845.281969
-0.16958,0.321348,0.677344,-53.34,-57.68,-38.779999,1770467845.289948
-0.13176,0.30744,0.588772,-41.509998,-58.450001,-41.650002,1770467845.297934
-0.120292,0.26474,0.488488,-28.77,-57.75,-46.130001,1770467845.305943
-0.11712,0.237412,0.384544,-19.530001,-54.040001,-54.110001,1770467845.313977
-0.040504,0.285236,0.275964,-7.63,-46.970001,-40.110001,1770467845.322006
0.00488,0.408212,0.200568,8.89,-56.0,-25.48,1770467845.329965
-0.0244,0.416508,0.196176,15.96,-60.900002,-16.940001,1770467845.33796
-0.01342,0.42456,0.18544,21.35,-64.400002,-5.32,1770467845.345972
0.00732,0.408212,0.1769,21.98,-69.019997,-3.64,1770467845.353975
0.027572,0.363316,0.1708,20.02,-71.889999,4.97,1770467845.362051
0.049776,0.286456,0.189588,20.09,-70.0,7.28,1770467845.369968
0.071736,0.203008,0.2501,15.54,-59.43,9.87,1770467845.377965
0.083204,0.124196,0.351116,13.3,-42.630001,6.37,1770467845.386
0.077836,0.06222,0.51118,3.43,-22.540001,7.84,1770467845.393963
0.04026,0.025132,0.7198,-6.23,1.54,5.88,1770467845.401959
-0.01586,-0.01586,0.920124,-6.58,25.76,2.31,1770467845.410093
-0.05002,-0.081008,1.104344,-1.54,44.450001,-2.8,1770467845.418008
-0.137372,-0.1464,1.319796,10.29,56.91,-4.76,1770467845.425983
-0.282552,-0.134688,1.59698,10.99,65.660004,-5.67,1770467845.434073
-0.40016,-0.112972,1.97274,0.77,71.400002,-13.16,1770467845.441957
-0.477508,-0.182268,2.213568,-19.040001,67.760002,-12.81,1770467845.450062
-0.561444,-0.297192,2.303848,-37.66,59.5,-10.01,1770467845.457981
-0.611952,-0.423584,2.34118,-36.470001,45.779999,1.4,1770467845.465957
-0.637816,-0.440908,2.283108,-35.139999,23.940001,6.09,1770467845.473953
-0.604144,-0.356972,2.12036,-42.490002,-7.14,8.12,1770467845.481962
-0.529724,-0.247904,1.913204,-53.970001,-37.240002,5.32,1770467845.489963
-0.392596,-0.12566,1.694824,-67.900002,-58.59,-3.5,1770467845.497957
-0.233508,-0.04026,1.491816,-74.199997,-70.980003,-4.62,1770467845.505959
-0.078324,-0.002684,1.26026,-75.949997,-78.75,-6.65,1770467845.514006
0.043432,0.015128,1.06018,-73.220001,-85.330002,-1.96,1770467845.521989
0.1159,0.042944,0.887672,-65.870003,-85.75,-2.73,1770467845.52995
0.165432,0.068076,0.735904,-62.09,-81.199997,-2.52,1770467845.537943
0.244976,0.19276,0.566812,-50.330002,-84.910004,-10.92,1770467845.546009
0.482632,0.634888,0.288408,-31.85,-92.330002,-1.05,1770467845.553951
0.334768,0.492636,0.375028,-11.97,-96.529999,14.56,1770467845.561967
0.36234,0.563396,0.350628,-3.29,-92.889999,21.07,1770467845.56996
0.374784,0.575596,0.340868,-4.34,-82.739998,29.049999,1770467845.577958
0.38552,0.55754,0.307928,-6.58,-65.519997,32.619999,1770467845.586025
0.3721,0.544852,0.249612,-6.93,-42.560001,33.040001,1770467845.594015
0.342088,0.526308,0.174948,-9.52,-17.5,30.379999,1770467845.601964
0.311588,0.480436,0.115168,-5.6,10.29,23.309999,1770467845.610024
0.297192,0.406016,0.076128,-0.77,41.650002,20.299999,1770467845.618019
0.27938,0.337208,0.077592,11.76,70.629997,16.1,1770467845.625956
0.256932,0.305,0.158112,22.540001,98.980003,10.85,1770467845.633945
0.264496,0.316224,0.351604,35.419998,121.099998,11.83,1770467845.641964
0.275476,0.341356,0.608048,47.459999,142.520004,4.13,1770467845.64999
0.26352,0.324276,0.869372,50.049999,162.190002,4.13,1770467845.657961
0.213744,0.27084,1.09678,57.470001,182.139999,0.91,1770467845.666008
0.113704,0.209596,1.254648,64.050003,199.080002,1.47,1770467845.673955
-0.027084,0.145668,1.40056,70.629997,210.070007,7.84,1770467845.682001
-0.166896,0.114924,1.617232,77.559998,208.25,14.7,1770467845.689963
-0.329156,0.100284,1.902712,70.0,191.380005,26.32,1770467845.697946
-0.525088,0.029768,2.11792,55.509998,161.490005,31.92,1770467845.705961
-0.628544,-0.085888,2.188192,43.610001,114.379997,50.470001,1770467845.713964
-0.91988,-0.318908,2.168428,33.110001,78.959999,63.98,1770467845.721967
-1.05286,-0.598532,2.013488,9.87,45.150002,27.58,1770467845.72996
-1.054324,-0.705892,1.81658,0.91,18.34,9.17,1770467845.737965
-1.025288,-0.691984,1.6165,-7.21,-2.1,2.66,1770467845.746041
-0.964776,-0.615612,1.464244,-16.66,-12.25,-9.38,1770467845.753993
-0.8601,-0.447252,1.362496,-21.07,-16.66,-14.0,1770467845.762024
-0.729316,-0.229116,1.293688,-21.209999,-22.75,-23.030001,1770467845.769957
-0.584136,-0.018544,1.225124,-27.23,-34.02,-25.549999,1770467845.777957
-0.471408,0.155428,1.124352,-25.41,-47.810001,-25.690001,1770467845.785984
-0.364536,0.260104,1.012356,-23.799999,-60.900002,-30.1,1770467845.79401
-0.27206,0.313296,0.90036,-14.56,-74.339996,-26.389999,1770467845.801967
-0.209108,0.324032,0.785924,-7.42,-86.870003,-31.5,1770467845.810114
-0.171288,0.33184,0.6649,-0.28,-95.550003,-36.959999,1770467845.818007
-0.133224,0.395524,0.513864,13.65,-91.419998,-41.93,1770467845.825965
-0.001708,0.488,0.375516,21.280001,-103.879997,-34.720001,1770467845.833956
0.04758,0.4941,0.306952,30.24,-113.68,-21.629999,1770467845.841956
0.066612,0.513132,0.243512,24.92,-119.0,-17.290001,1770467845.849974
0.092964,0.521184,0.183488,19.879999,-124.459999,-12.95,1770467845.857967
0.12566,0.499956,0.114436,10.57,-124.879997,-6.79,1770467845.865959
0.14884,0.434076,0.06954,-0.77,-121.870003,-1.54,1770467845.873994
0.167384,0.43066,0.034404,-2.8,-106.400002,6.58,1770467845.881971
0.191296,0.355752,0.067588,1.12,-85.889999,10.5,1770467845.889961
0.213256,0.282796,0.176412,3.99,-58.240002,8.89,1770467845.897942
0.217648,0.23668,0.367952,7.77,-17.92,5.81,1770467845.90596
0.199348,0.183732,0.650016,3.43,24.219999,-5.32,1770467845.91397
0.164212,0.101748,0.932812,-3.64,67.480003,-14.0,1770467845.921961
0.06344,-0.026108,1.142408,2.87,109.830002,-23.799999,1770467845.93007
-0.087596,-0.121756,1.30906,9.8,141.820007,-18.549999,1770467845.937955
-0.306952,-0.144204,1.568188,17.92,150.779999,-20.370001,1770467845.946011
-0.663436,-0.178852,1.913204,10.36,145.600006,-16.1,1770467845.953964
-1.037732,-0.37332,2.168916,-8.33,120.400002,-43.540001,1770467845.961975
-1.073356,-0.401868,2.232844,-17.43,76.510002,-53.830002,1770467845.970156
-1.094828,-0.561688,2.192584,-28.07,8.68,-46.27,1770467845.979749
-0.99918,-0.723948,2.089128,-30.1,-39.689999,-40.669998,1770467845.986796
-0.826672,-0.743712,1.982988,-33.32,-79.099998,-42.700001,1770467845.994037
-0.597312,-0.615612,1.880264,-38.43,-109.690002,-43.75,1770467846.002024
-0.346236,-0.420656,1.746552,-46.900002,-132.509995,-43.889999,1770467846.009965
-0.111508,-0.23912,1.574044,-57.119999,-142.800003,-39.200001,1770467846.017982
0.071004,-0.078812,1.3481,-61.529999,-146.860001,-37.169998,1770467846.026086
0.144204,0.049776,1.102636,-61.32,-148.960007,-32.27,1770467846.033973
0.204716,0.141032,0.878644,-63.98,-144.830002,-36.049999,1770467846.041958
0.303292,0.233752,0.728584,-61.669998,-155.75,-51.099998,1770467846.049962
0.44896,0.463844,0.613904,-41.23,-159.740005,-8.12,1770467846.057959
0.503372,0.47336,0.564372,-33.669998,-149.729996,9.59,1770467846.066005
0.548024,0.4575,0.49166,-30.450001,-134.889999,19.809999,1770467846.074063
0.556564,0.413824,0.376492,-24.780001,-113.889999,28.84,1770467846.08196
0.539972,0.362828,0.239852,-13.23,-88.970001,35.91,1770467846.089958
0.494588,0.344284,0.118828,-3.36,-59.220001,35.349998,1770467846.097945
0.432612,0.349408,0.024156,6.23,-27.02,37.450001,1770467846.106046
0.377468,0.303536,-0.014884,9.66,7.07,31.15,1770467846.114055
0.337452,0.226188,-0.028548,15.12,42.84,22.4,1770467846.121956
0.302316,0.177876,-0.032208,24.780001,78.959999,13.3,1770467846.129956
0.266692,0.174216,0.023424,37.869999,112.910004,7.0,1770467846.137979
0.248392,0.188856,0.147376,52.220001,142.800003,2.52,1770467846.145937
0.253028,0.216184,0.36844,62.23,167.789993,-0.91,1770467846.153963
0.277916,0.243024,0.702476,66.849998,188.300003,-0.91,1770467846.161956
0.26962,0.241316,1.038952,74.339996,207.059998,-8.12,1770467846.169954
0.2074,0.188124,1.231224,72.660004,222.389999,-9.8,1770467846.178158
0.081496,0.089792,1.358836,79.309998,233.309998,-9.38,1770467846.185936
-0.097112,0.024156,1.5006,84.769997,234.710007,-5.67,1770467846.193963
-0.278404,-0.008052,1.72142,81.339996,218.960007,4.55,1770467846.201961
-0.480436,-0.027816,2.056188,70.349998,183.75,18.34,1770467846.209948
-0.677832,-0.090036,2.220644,49.490002,133.210007,38.57,1770467846.217963
-1.046516,-0.279868,2.184288,32.970001,92.959999,54.950001,1770467846.226032
-1.214876,-0.590724,2.024712,9.45,62.09,18.48,1770467846.233958
-1.199992,-0.732244,1.830488,3.99,28.98,3.01,1770467846.24196
-1.1529,-0.7076,1.651392,0.91,0.98,-7.21,1770467846.249952
-1.070672,-0.596824,1.51402,-4.69,-17.219999,-18.41,1770467846.257986
-0.953552,-0.42944,1.431304,-12.67,-25.200001,-27.790001,1770467846.265981
-0.8113,-0.228384,1.364448,-20.09,-28.559999,-32.900002,1770467846.273963
-0.668072,-0.039528,1.286856,-31.360001,-33.599998,-41.09,1770467846.281942
-0.55022,0.091012,1.174128,-41.93,-40.529999,-44.939999,1770467846.28995
-0.437492,0.155428,1.046516,-46.970001,-49.77,-51.59,1770467846.297955
-0.345504,0.198616,0.91012,-44.869999,-59.080002,-54.599998,1770467846.306006
-0.263276,0.229848,0.784216,-36.68,-70.629997,-61.110001,1770467846.314012
-0.188124,0.274988,0.673928,-25.34,-79.870003,-56.84,1770467846.321963
-0.183488,0.294508,0.581452,-8.19,-85.75,-64.959999,1770467846.329957
-0.146888,0.401624,0.46726,10.43,-89.879997,-62.23,1770467846.337981
-0.017568,0.522892,0.35868,32.970001,-90.790001,-47.950001,1770467846.3461
-0.007564,0.520452,0.348432,39.200001,-103.32,-29.82,1770467846.353973
0.0183,0.531432,0.30256,35.0,-113.610001,-18.27,1770467846.362
0.049776,0.52338,0.236192,26.879999,-123.970001,-14.49,1770467846.369963
0.088572,0.496784,0.161284,19.110001,-133.699997,-3.92,1770467846.377957
0.124196,0.456036,0.101992,16.870001,-139.720001,-0.21,1770467846.386013
0.165188,0.418948,0.07808,15.89,-138.320007,8.4,1770467846.394128
0.203252,0.38674,0.085644,15.33,-128.100006,7.91,1770467846.401966
0.243756,0.355752,0.143228,18.200001,-108.639999,4.69,1770467846.409962
0.2928,0.345016,0.278892,10.57,-76.440002,0.07,1770467846.418112
0.35014,0.350628,0.476532,4.13,-34.93,-5.74,1770467846.42595
0.392596,0.349652,0.729316,-7.91,12.11,-7.14,1770467846.433973
0.399184,0.29768,0.988688,-22.68,63.279999,-11.06,1770467846.441991
0.346724,0.1769,1.259284,-22.75,115.150002,-18.34,1770467846.449983
0.222528,0.044652,1.558184,-12.88,163.729996,-25.200001,1770467846.457963
-0.030012,-0.023424,1.945168,1.47,205.660004,-31.709999,1770467846.465959
-0.309392,-0.1403,2.2753,3.08,225.820007,-30.940001,1770467846.474094
-0.578768,-0.328424,2.5132,8.54,213.710007,-23.17,1770467846.481957
-0.875472,-0.49776,2.486604,10.78,185.149994,-13.72,1770467846.489956
-1.17608,-0.6527,2.240652,-5.11,118.720001,-30.870001,1770467846.497966
-1.27978,-0.717848,2.040328,-12.6,44.869999,-36.330002,1770467846.505954
-1.229516,-0.692472,1.79706,-24.43,-30.66,-37.380001,1770467846.514089
-1.036512,-0.574132,1.563064,-32.900002,-89.739998,-35.84,1770467846.52196
-0.765916,-0.419436,1.400316,-37.099998,-136.289993,-42.700001,1770467846.529954
-0.487512,-0.267424,1.261236,-45.779999,-162.119995,-40.110001,1770467846.537939
-0.222284,-0.128344,1.112884,-47.25,-177.520004,-41.790001,1770467846.546
-0.017812,0.0061,0.95526,-46.900002,-183.259995,-30.379999,1770467846.55397
0.089792,0.098088,0.823012,-47.810001,-180.179993,-27.51,1770467846.561992
0.164944,0.113216,0.721264,-43.889999,-166.880005,-34.650002,1770467846.57002
0.364048,0.177144,0.55632,-32.34,-163.660004,-30.24,1770467846.578005
0.473604,0.301828,0.533872,-3.22,-145.669998,8.54,1770467846.585971
0.476044,0.360144,0.439688,3.57,-131.669998,25.549999,1770467846.593984
0.465308,0.385032,0.343308,8.26,-110.389999,38.919998,1770467846.601975
0.4331,0.411872,0.244732,15.75,-85.120003,45.639999,1770467846.610031
0.388448,0.413092,0.171532,16.450001,-56.139999,51.380001,1770467846.617978
0.353556,0.370392,0.143472,23.52,-27.16,47.740002,1770467846.625958
0.31598,0.299144,0.124196,25.969999,4.97,47.880001,1770467846.63399
0.276696,0.237168,0.103944,30.1,34.860001,42.209999,1770467846.641985
0.24156,0.206668,0.10248,40.110001,60.41,30.59,1770467846.64995
0.212768,0.18056,0.157624,45.779999,82.739998,26.6,1770467846.657988
0.206424,0.150792,0.282064,48.860001,101.639999,15.26,1770467846.66612
0.226432,0.122732,0.493124,47.740002,115.919998,10.64,1770467846.673953
0.254492,0.084912,0.785192,39.549999,130.270004,2.59,1770467846.681981
0.243268,0.033916,1.025532,36.540001,141.539993,-1.05,1770467846.689988
0.17324,-0.048556,1.184864,35.630001,155.399994,-9.59,1770467846.698096
0.092476,-0.139812,1.287832,46.130001,167.369995,-5.11,1770467846.70596
-0.002928,-0.199592,1.42374,56.279999,169.610001,0.07,1770467846.713957
-0.11956,-0.259128,1.658224,57.540001,155.539993,14.0,1770467846.721969
-0.292556,-0.23668,1.968592,54.18,132.509995,21.280001,1770467846.72996
-0.462624,-0.23058,2.11426,43.189999,101.080002,35.349998,1770467846.737958
-0.684908,-0.27938,2.127436,32.759998,78.959999,45.849998,1770467846.746009
-0.939888,-0.506056,2.08376,9.8,56.07,16.73,1770467846.754001
-0.97966,-0.524844,1.911496,-3.15,35.77,12.18,1770467846.76198
-1.00406,-0.458232,1.718248,-5.67,16.309999,-0.14,1770467846.769962
-0.987956,-0.320616,1.547936,-10.36,-0.35,-2.87,1770467846.777996
-0.91744,-0.157136,1.446432,-16.1,-13.44,-11.27,1770467846.78595
-0.802028,0.014884,1.379332,-22.4,-24.01,-19.809999,1770467846.793971
-0.676368,0.158356,1.308328,-35.560001,-32.27,-20.58,1770467846.801965
-0.560468,0.26596,1.206336,-41.860001,-39.200001,-20.93,1770467846.809961
-0.463112,0.340868,1.073844,-43.75,-48.369999,-19.879999,1770467846.817976
-0.399428,0.350384,0.951844,-37.380001,-56.91,-20.09,1770467846.825989
-0.349896,0.324032,0.830332,-27.58,-66.43,-25.059999,1770467846.833957
-0.28304,0.308172,0.728828,-9.8,-75.25,-29.120001,1770467846.84198
-0.150548,0.395524,0.617564,13.86,-87.919998,-12.25,1770467846.850034
-0.133468,0.388936,0.576816,22.889999,-99.75,-10.57,1770467846.857957
-0.095892,0.391864,0.489952,26.110001,-110.879997,-15.33,1770467846.865981
-0.040504,0.348432,0.397476,14.56,-125.019997,-22.26,1770467846.874041
-0.011224,0.331352,0.29768,3.01,-131.669998,-25.48,1770467846.881995
-0.038796,0.3538,0.186904,-3.71,-128.100006,-21.91,1770467846.88996
0.086376,0.461648,0.059048,-5.11,-131.529999,-16.24,1770467846.897951
0.103944,0.420656,0.016836,-6.44,-135.940002,1.33,1770467846.906042
0.151036,0.41358,0.000732,-9.45,-139.789993,1.75,1770467846.914182
0.21838,0.366732,0.024888,-5.32,-136.429993,3.43,1770467846.921966
0.305732,0.273524,0.106872,0.0,-122.989998,3.99,1770467846.930534
0.371124,0.234728,0.226676,6.65,-102.760002,-2.24,1770467846.937963
0.42944,0.238632,0.387716,8.12,-69.860001,1.33,1770467846.945965
0.45384,0.253028,0.591212,-3.22,-26.879999,-1.96,1770467846.953959
0.464576,0.255712,0.793,-13.79,19.879999,0.63,1770467846.961971
0.450668,0.173972,1.007232,-19.950001,66.080002,-7.07,1770467846.970254
0.370392,0.03172,1.21146,-21.07,113.260002,-9.45,1770467846.978408
0.282064,-0.100284,1.437404,-5.53,157.570007,-13.02,1770467846.986291
0.201544,-0.205448,1.764852,6.09,186.759995,-10.57,1770467846.994061
-0.018544,-0.295972,2.087908,13.02,198.729996,-0.49,1770467847.001975
-0.279624,-0.430904,2.326052,20.790001,191.729996,13.3,1770467847.009977
-0.676612,-0.572668,2.4888,21.0,178.5,24.99,1770467847.018101
-0.906216,-0.694668,2.379244,8.12,145.809998,2.31,1770467847.025968
-1.018944,-0.642696,2.203076,-2.24,97.510002,-7.91,1770467847.033973
-1.039928,-0.526308,1.970056,-18.34,45.919998,-1.82,1770467847.041963
-0.958676,-0.380884,1.71166,-28.07,-4.41,-8.89,1770467847.049955
-0.778116,-0.20252,1.52866,-38.360001,-44.52,-8.12,1770467847.05803
-0.55632,-0.039284,1.395192,-43.889999,-72.239998,-14.42,1770467847.065955
-0.343796,0.10614,1.257576,-52.779999,-88.199997,-13.86,1770467847.073966
-0.165188,0.221796,1.107272,-57.82,-95.129997,-10.57,1770467847.081947
-0.07198,0.252052,0.963556,-61.18,-97.580002,-11.9,1770467847.089957
0.000244,0.262056,0.797392,-63.91,-93.660004,-16.450001,1770467847.09795
0.116632,0.297192,0.625616,-49.209999,-78.400002,-2.31,1770467847.105999
0.24034,0.375516,0.569008,-26.879999,-80.989998,35.630001,1770467847.113954
0.244,0.377956,0.5246,-13.44,-76.440002,44.66,1770467847.121967
0.26718,0.375516,0.469944,-2.31,-64.190002,54.18,1770467847.129958
0.284504,0.383568,0.4148,9.45,-48.790001,57.540001,1770467847.137969
0.284016,0.3721,0.378688,19.67,-33.32,59.150002,1770467847.145956
0.277672,0.32818,0.363072,25.76,-14.77,60.900002,1770467847.153951
0.265228,0.284748,0.3599,25.059999,2.03,59.5,1770467847.161949
0.259128,0.262056,0.364536,27.65,17.85,56.419998,1770467847.169957
0.252784,0.256688,0.351848,30.309999,32.200001,46.060001,1770467847.178034
0.236924,0.261812,0.328912,34.860001,43.400002,42.279999,1770467847.185974
0.210816,0.25742,0.327936,39.200001,54.32,33.32,1770467847.194298
0.19398,0.218624,0.34892,44.099998,65.660004,29.610001,1770467847.202
0.19032,0.159576,0.436516,56.209999,70.139999,15.26,1770467847.210026
0.209352,0.103456,0.604144,62.09,71.610001,4.48,1770467847.217946
0.219844,0.048068,0.84058,71.400002,72.870003,-5.18,1770467847.225955
0.212036,-0.011712,1.054812,68.459999,74.760002,-12.95,1770467847.233949
0.194224,-0.102236,1.215608,60.41,81.410004,-13.16,1770467847.241951
0.17202,-0.198128,1.309548,56.630001,80.779999,-8.68,1770467847.249978
0.17202,-0.409188,1.46034,43.189999,70.839996,8.96,1770467847.257991
0.077348,-0.424316,1.614548,36.470001,63.84,27.09,1770467847.265949
-0.080764,-0.373076,1.779248,36.330002,67.059998,34.860001,1770467847.273953
-0.552172,-0.59902,1.973228,28.629999,85.610001,24.5,1770467847.281942
-0.49288,-0.433344,1.850008,20.299999,97.720001,9.17,1770467847.289949
-0.649284,-0.365268,1.787788,16.73,112.489998,8.05,1770467847.297932
-0.806176,-0.238388,1.700924,18.41,121.309998,10.43,1770467847.306072
-0.955016,-0.039284,1.614548,19.74,122.290001,5.81,1770467847.31396
-1.048712,0.207156,1.537444,8.12,112.279999,12.81,1770467847.321968
-1.093364,0.421144,1.46522,-1.19,83.650002,8.4,1770467847.329965
-1.073356,0.549,1.359324,-26.879999,43.119999,5.18,1770467847.337954
-0.987468,0.56486,1.225612,-44.099998,-8.05,-0.91,1770467847.345958
-0.849608,0.53924,1.057008,-59.779999,-55.23,-13.51,1770467847.354056
-0.683444,0.471408,0.942084,-68.879997,-89.459999,-9.45,1770467847.361994
-0.513132,0.400648,0.848388,-72.449997,-116.410004,-14.14,1770467847.369962
-0.300852,0.418704,0.758352,-73.080002,-135.309998,5.6,1770467847.377954
-0.189344,0.366488,0.723216,-74.480003,-143.429993,10.71,1770467847.385995
-0.067832,0.31354,0.67344,-74.760002,-141.889999,13.58,1770467847.393968
0.005368,0.243268,0.603412,-74.129997,-132.720001,17.5,1770467847.402008
0.055144,0.1708,0.528016,-64.330002,-115.010002,7.35,1770467847.41001
0.131028,0.142984,0.45872,-54.459999,-98.559998,6.65,1770467847.417959
0.226676,0.1342,0.4209,-35.77,-89.459999,13.79,1770467847.425962
0.167384,0.088084,0.426024,-21.77,-75.669998,16.379999,1770467847.434012
0.1342,0.061488,0.430172,-12.25,-59.639999,19.25,1770467847.441991
0.099308,0.034648,0.453352,-3.15,-47.110001,18.41,1770467847.44996
0.057096,0.020008,0.496784,-0.91,-36.889999,19.25,1770467847.457957
0.013908,0.005124,0.543144,1.89,-30.24,17.219999,1770467847.465986
-0.041724,-0.00854,0.567544,1.75,-25.549999,18.83,1770467847.474016
-0.100772,-0.017812,0.563884,-0.77,-25.549999,21.07,1770467847.481956
-0.126636,-0.05734,0.607072,9.1,-24.92,20.16,1770467847.489964
-0.151768,-0.113216,0.725412,20.02,-21.139999,28.280001,1770467847.497974
-0.27816,-0.172264,0.894748,34.23,-7.98,37.450001,1770467847.506118
-0.316468,-0.182512,1.038464,38.290001,7.28,36.889999,1770467847.513952
-0.485804,-0.344772,1.193648,31.99,18.41,20.16,1770467847.521963
-0.497516,-0.414556,1.282952,36.540001,23.52,9.38,1770467847.529948
-0.569496,-0.454572,1.36884,43.189999,29.889999,12.95,1770467847.537989
-0.60634,-0.438956,1.476444,53.200001,28.280001,15.68,1770467847.545967
-0.607072,-0.331596,1.56648,53.200001,17.08,17.360001,1770467847.554041
-0.572912,-0.161528,1.649928,45.290001,-2.03,28.559999,1770467847.561964
-0.519232,0.020496,1.736548,35.349998,-21.98,30.52,1770467847.570009
-0.434076,0.16714,1.803404,20.860001,-41.02,34.09,1770467847.578
-0.31964,0.28182,1.835612,5.46,-55.09,30.73,1770467847.585955
-0.192028,0.346968,1.76778,-8.26,-66.57,35.209999,1770467847.59395
-0.090036,0.325984,1.636264,-17.92,-73.849998,36.119999,1770467847.602126
0.006588,0.290116,1.478396,-15.89,-81.760002,28.209999,1770467847.609957
0.081008,0.217892,1.318576,-13.3,-80.919998,30.17,1770467847.617952
0.307928,0.410896,1.014796,3.22,-78.400002,50.259998,1770467847.626004
0.294752,0.433832,1.031144,18.200001,-79.449997,65.730003,1770467847.634019
0.31964,0.506788,0.918172,24.99,-69.790001,74.199997,1770467847.641958
0.33794,0.591456,0.775676,33.669998,-56.630001,69.790001,1770467847.649954
0.336476,0.708088,0.639768,35.560001,-43.540001,68.110001,1770467847.657955
0.3111,0.752008,0.507276,29.540001,-30.1,62.93,1770467847.665996
0.272304,0.738832,0.377224,11.2,-18.129999,54.25,1770467847.673949
0.253272,0.66124,0.291824,-15.33,-5.25,52.919998,1770467847.681959
0.252296,0.513376,0.262544,-41.369999,7.28,48.09,1770467847.689965
0.27328,0.372832,0.280112,-63.349998,21.98,51.73,1770467847.698094
0.296948,0.23546,0.33184,-71.610001,32.970001,49.0,1770467847.705977
0.304756,0.121268,0.416264,-69.510002,39.41,51.029999,1770467847.713963
0.2989,0.020496,0.528504,-64.330002,45.57,50.259998,1770467847.721968
0.283284,-0.072224,0.642452,-46.41,49.07,50.889999,1770467847.729954
0.255712,-0.13542,0.721996,-27.790001,56.349998,48.23,1770467847.738045
0.294508,-0.269132,0.80276,-3.22,59.919998,53.689999,1770467847.745967
0.283528,-0.307684,0.870836,23.870001,68.389999,60.689999,1770467847.753959
0.255956,-0.357704,0.982832,46.130001,77.769997,62.16,1770467847.761964
0.15372,-0.514108,1.126792,64.120003,92.190002,46.34,1770467847.770004
0.145424,-0.52948,1.136064,73.080002,107.940002,41.16,1770467847.777963
0.117852,-0.560712,1.197552,85.959999,116.760002,39.900002,1770467847.785992
0.063928,-0.569496,1.258308,91.839996,120.190002,37.799999,1770467847.793963
-0.01586,-0.54656,1.263676,94.5,121.660004,38.150002,1770467847.802052
-0.099308,-0.473848,1.252452,95.620003,119.839996,33.32,1770467847.809969
-0.162748,-0.368928,1.252208,89.599998,116.900002,37.450001,1770467847.817967
-0.241316,-0.263032,1.273436,84.0,113.82,37.380001,1770467847.826006
-0.327448,-0.157868,1.316136,80.989998,119.07,37.73,1770467847.833965
-0.430904,-0.039772,1.361764,72.449997,131.179993,36.68,1770467847.841961
-0.517524,0.124684,1.400072,68.32,142.169998,34.439999,1770467847.84996
-0.590724,0.305976,1.44814,55.720001,149.029999,34.439999,1770467847.857989
-0.648308,0.49166,1.479128,41.650002,143.5,28.559999,1770467847.866055
-0.698328,0.671,1.453264,21.0,126.489998,20.719999,1770467847.873965
-0.731756,0.727608,1.40056,-2.94,104.089996,9.59,1770467847.881962
-0.602924,0.837652,1.2505,-15.68,67.970001,12.32,1770467847.889975
-0.626348,0.737124,1.191208,-32.41,38.779999,9.03,1770467847.89797
-0.54778,0.641964,1.08336,-43.470001,13.79,1.96,1770467847.905967
-0.444812,0.532408,0.976244,-51.52,-5.81,0.42,1770467847.914029
-0.331108,0.461648,0.883036,-57.189999,-18.690001,-1.05,1770467847.921968
-0.22692,0.419436,0.813496,-54.810001,-27.440001,-2.31,1770467847.930054
-0.143472,0.393328,0.761768,-58.66,-29.889999,-0.14,1770467847.937964
-0.074176,0.366,0.72468,-60.060001,-28.559999,2.73,1770467847.945995
-0.020496,0.342576,0.687592,-60.759998,-24.639999,4.13,1770467847.953963
0.008784,0.30012,0.657336,-62.299999,-14.77,10.64,1770467847.961963
0.021716,0.2745,0.622688,-57.119999,-4.34,15.89,1770467847.97862
-0.010492,0.234484,0.604388,-49.77,14.21,24.290001,1770467847.981559
-0.044652,0.227896,0.589992,-46.689999,28.0,26.950001,1770467847.989625
-0.096136,0.221064,0.595604,-41.09,40.880001,30.73,1770467847.997791
-0.1586,0.203496,0.618296,-40.459999,54.110001,27.719999,1770467848.005627
-0.231312,0.199836,0.62952,-38.360001,65.309998,34.09,1770467848.013557
-0.307928,0.187148,0.650992,-33.32,72.870003,32.48,1770467848.021664
-0.382592,0.143228,0.660996,-29.469999,76.93,35.77,1770467848.029584
-0.478484,0.098088,0.670756,-20.65,79.660004,38.150002,1770467848.037527
-0.570472,0.042944,0.669048,-11.76,80.290001,38.360001,1770467848.045546
-0.647576,-0.011468,0.635376,0.56,75.529999,47.880001,1770467848.053544
-0.727852,-0.067832,0.595848,13.65,63.419998,48.580002,1770467848.061595
-0.81862,-0.143228,0.615124,26.32,51.66,55.439999,1770467848.06955
-0.928908,-0.166164,0.670512,39.900002,39.549999,44.310001,1770467848.077538
-1.010404,-0.177876,0.764452,47.880001,25.969999,35.560001,1770467848.085576
-1.089948,-0.159088,0.863272,58.52,8.68,31.780001,1770467848.093563
-1.147044,-0.1342,0.965996,60.549999,-9.03,24.92,1770467848.101932
-1.147532,-0.079056,1.080676,58.869999,-31.219999,15.47,1770467848.109629
-1.087264,-0.033916,1.208532,56.84,-52.43,11.83,1770467848.11757
-0.97478,0.005368,1.341756,54.669998,-74.410004,6.02,1770467848.125527
-0.829112,0.04148,1.478884,51.799999,-98.07,4.34,1770467848.133538
-0.671976,0.104432,1.598932,47.599998,-120.75,-2.8,1770467848.141575
-0.485804,0.20984,1.640168,47.389999,-142.449997,-5.46,1770467848.149543
-0.304512,0.321592,1.613084,48.650002,-160.509995,-9.17,1770467848.157529
-0.170068,0.388448,1.547204,49.560001,-174.509995,-17.08,1770467848.165618
-0.074908,0.446764,1.440576,59.290001,-183.820007,-21.49,1770467848.173556
0.069784,0.552416,1.318088,63.209999,-188.369995,-17.08,1770467848.181572
0.322812,0.675148,1.191696,66.080002,-195.509995,0.77,1770467848.189603
0.284992,0.67466,1.056276,49.419998,-198.660004,5.11,1770467848.197535
0.318664,0.649284,0.86742,20.02,-192.080002,7.0,1770467848.205536
0.382104,0.57462,0.70028,-8.19,-171.429993,7.28,1770467848.213543
0.438468,0.51118,0.566812,-33.459999,-145.179993,7.7,1770467848.221655
0.4941,0.42944,0.488976,-55.650002,-109.900002,7.63,1770467848.229551
0.53314,0.326716,0.450912,-68.529999,-72.239998,5.46,1770467848.237534
0.56852,0.231312,0.441396,-76.089996,-34.439999,-1.47,1770467848.245539
0.58682,0.17202,0.469212,-72.029999,-1.12,-2.17,1770467848.253535
0.583404,0.144936,0.536068,-67.900002,32.549999,-2.73,1770467848.261556
0.556564,0.110044,0.627324,-62.860001,57.189999,-0.49,1770467848.269607
0.52704,0.05978,0.721752,-57.75,77.419998,5.6,1770467848.277532
0.494832,0.000488,0.823988,-50.540001,92.400002,6.79,1770467848.285526
0.46604,-0.044652,0.920612,-45.080002,102.059998,13.51,1770467848.293541
0.436272,-0.078324,1.019432,-36.119999,107.519997,16.59,1770467848.301571
0.390644,-0.10736,1.097024,-28.35,109.900002,21.42,1770467848.309598
0.332816,-0.1342,1.1346,-18.969999,110.18,26.879999,1770467848.317547
0.270596,-0.14884,1.130208,-14.35,108.43,32.060001,1770467848.325547
0.210328,-0.171288,1.093364,-6.65,107.099998,39.48,1770467848.333544
0.15006,-0.192516,1.055056,0.91,107.309998,45.990002,1770467848.341622
0.087108,-0.2196,1.003816,9.03,111.440002,53.41,1770467848.349561
0.018056,-0.24766,0.951844,21.0,116.059998,57.119999,1770467848.357537
-0.049532,-0.244732,0.937692,31.780001,123.690002,58.869999,1770467848.36554
-0.12932,-0.220576,0.950624,42.91,132.509995,58.939999,1770467848.373571
-0.185684,-0.141032,0.961116,49.77,139.649994,57.330002,1770467848.381633
-0.246928,-0.081496,0.98454,57.75,145.809998,57.189999,1770467848.389558
-0.351848,-0.020984,0.992836,62.439999,153.720001,53.830002,1770467848.397539
-0.456036,0.046848,0.987956,64.889999,162.190002,46.060001,1770467848.40555
-0.532652,0.132736,0.98088,62.720001,164.009995,38.639999,1770467848.413573
-0.635376,0.21838,0.989664,56.77,162.399994,30.799999,1770467848.421576
-0.731756,0.303048,0.996496,45.849998,156.940002,20.719999,1770467848.429609
-0.8113,0.356728,0.996252,35.0,148.399994,11.62,1770467848.437546
-0.863272,0.366976,1.002352,17.01,134.050003,0.0,1770467848.44555
-0.881328,0.350628,1.005524,5.39,112.489998,-8.47,1770467848.453615
-0.881816,0.327204,1.015284,-6.44,87.57,-20.65,1770467848.461583
-0.855952,0.31354,1.014552,-13.44,60.970001,-22.469999,1770467848.469555
-0.807884,0.310124,1.017724,-17.92,34.23,-29.889999,1770467848.477544
-0.737124,0.327448,1.009428,-26.74,10.22,-35.279999,1770467848.485644
-0.650992,0.364048,1.00284,-34.23,-9.03,-35.279999,1770467848.493546
-0.556564,0.398208,0.998448,-42.0,-26.67,-41.09,1770467848.501575
-0.46482,0.404064,0.973072,-50.330002,-38.290001,-44.450001,1770467848.509587
-0.38796,0.39772,0.94306,-60.200001,-47.32,-43.959999,1770467848.517541
-0.309636,0.387716,0.917684,-67.760002,-52.919998,-42.419998,1770467848.525545
-0.247172,0.348432,0.915976,-73.639999,-52.360001,-36.470001,1770467848.533669
-0.20618,0.315736,0.927932,-75.18,-45.43,-31.360001,1770467848.541576
-0.176656,0.279136,0.921832,-77.769997,-33.459999,-21.0,1770467848.549579
-0.175436,0.253516,0.886452,-71.959999,-16.1,-16.1,1770467848.557541
-0.197884,0.224236,0.835944,-66.849998,5.32,-5.67,1770467848.565544
-0.257908,0.214964,0.79666,-50.540001,28.0,0.0,1770467848.573593
-0.343308,0.232288,0.769088,-39.689999,51.73,6.44,1770467848.581578
-0.449204,0.26474,0.759816,-31.08,72.940002,8.96,1770467848.589551
-0.56242,0.310612,0.748348,-23.450001,89.949997,11.41,1770467848.597539
-0.67588,0.349652,0.756644,-22.190001,99.889999,12.32,1770467848.605671
-0.783484,0.377224,0.753472,-20.16,101.5,16.379999,1770467848.613562
-0.909144,0.386252,0.72346,-16.1,95.410004,18.9,1770467848.621579
-1.015772,0.37332,0.67344,-12.88,77.839996,13.86,1770467848.629618
-1.109956,0.340624,0.624884,-3.92,55.509998,12.39,1770467848.63755
-1.16754,0.289384,0.589748,6.79,27.719999,3.64,1770467848.645542
-1.198284,0.217892,0.571448,20.299999,-1.75,2.45,1770467848.653673
-1.212436,0.14152,0.565104,33.110001,-30.450001,-13.93,1770467848.66158
-1.183888,0.106628,0.562908,47.880001,-56.209999,-24.639999,1770467848.669551
-1.121912,0.081008,0.529968,62.439999,-84.0,-32.48,1770467848.677547
-1.059692,0.083448,0.521428,77.980003,-108.43,-44.029999,1770467848.685576
-0.959408,0.098088,0.551684,96.32,-128.660004,-41.369999,1770467848.693636
-0.84058,0.133224,0.624152,105.769997,-149.940002,-43.82,1770467848.701573
-0.694424,0.164212,0.718824,106.330002,-172.059998,-35.700001,1770467848.709596
-0.536556,0.212768,0.803248,107.519997,-195.649994,-33.810001,1770467848.717544
-0.360388,0.209596,0.899384,102.900002,-220.5,-28.209999,1770467848.725573
-0.213012,0.2135,0.986736,99.75,-237.440002,-27.860001,1770467848.73356
-0.056608,0.188124,1.05286,93.660004,-245.070007,-23.59,1770467848.741589
0.060024,0.217404,1.088728,83.650002,-243.809998,-26.67,1770467848.749548
0.144692,0.257176,1.134844,71.610001,-232.399994,-35.700001,1770467848.757546
0.258152,0.288896,1.147044,49.0,-215.529999,-50.400002,1770467848.765567
0.615612,0.516304,1.066036,33.18,-213.639999,-45.360001,1770467848.773545
0.590968,0.505568,1.041392,15.19,-190.889999,-38.080002,1770467848.781575
0.624884,0.473848,0.956236,-9.87,-161.630005,-32.619999,1770467848.789581
0.675148,0.396012,0.875472,-32.900002,-130.759995,-38.639999,1770467848.797537
0.719556,0.327204,0.817888,-59.290001,-94.43,-46.619999,1770467848.805708
0.751764,0.250588,0.803736,-74.059998,-52.639999,-49.07,1770467848.813538
0.774944,0.153232,0.833992,-82.669998,-6.58,-55.439999,1770467848.821676
0.776164,0.044164,0.888892,-81.550003,41.299999,-56.279999,1770467848.829578
0.733952,-0.069296,0.966972,-76.720001,80.849998,-54.669998,1770467848.837538
0.64782,-0.163724,1.040172,-72.449997,112.489998,-52.919998,1770467848.845613
0.5429,-0.20984,1.103612,-65.519997,137.759995,-48.23,1770467848.853586
0.409188,-0.213012,1.166076,-56.84,157.919998,-44.59,1770467848.86159
0.266936,-0.181048,1.231712,-56.139999,174.020004,-37.73,1770467848.86955
0.123952,-0.138104,1.26758,-54.32,181.649994,-34.509998,1770467848.877541
-0.014396,-0.101992,1.256844,-57.75,183.050003,-26.530001,1770467848.885575
-0.136396,-0.0671,1.2139,-51.310001,179.759995,-18.549999,1770467848.893618
-0.243268,-0.060268,1.163636,-46.759998,166.460007,-11.9,1770467848.901573
-0.352824,-0.041724,1.118008,-42.419998,152.25,-3.5,1770467848.909602
-0.456036,-0.034404,1.0919,-32.689999,135.240005,2.1,1770467848.917542
-0.516792,-0.023912,1.066036,-28.07,118.580002,10.29,1770467848.925545
-0.586088,-0.005612,1.01992,-20.719999,102.199997,16.450001,1770467848.933569
-0.61,0.019764,0.952576,-15.12,83.370003,19.25,1770467848.941704
-0.60634,0.038064,0.86498,-7.98,60.759998,30.940001,1770467848.949563
-0.586332,0.050752,0.758108,-2.66,36.540001,37.240002,1770467848.957535
-0.558272,0.064416,0.665876,5.53,12.88,41.509998,1770467848.965546
-0.50264,0.058072,0.612196,16.450001,-11.27,43.540001,1770467848.973868
-0.420656,0.047336,0.586088,21.209999,-29.540001,44.869999,1770467848.982222
-0.340868,0.03538,0.610244,32.900002,-40.810001,45.43,1770467848.989645
-0.263032,0.039528,0.655872,39.130001,-48.02,43.959999,1770467848.997726
-0.211304,0.050508,0.705892,46.970001,-47.110001,41.580002,1770467849.005547
-0.1464,0.080032,0.751764,51.310001,-41.02,39.900002,1770467849.013549
-0.113704,0.149816,0.815448,56.91,-33.110001,34.509998,1770467849.021579
-0.09028,0.213988,0.894504,50.889999,-20.02,22.75,1770467849.029554
-0.083448,0.259616,0.992348,43.119999,-5.32,11.06,1770467849.037523
-0.107116,0.315492,1.080188,31.219999,10.78,2.66,1770467849.045617
-0.149816,0.32208,1.1468,15.33,28.42,-5.46,1770467849.053583
-0.238388,0.32452,1.156072,5.11,43.959999,-9.8,1770467849.061573
-0.346236,0.305732,1.1651,-4.76,59.639999,-10.01,1770467849.069597
-0.488976,0.312564,1.147776,-8.68,76.790001,-19.459999,1770467849.077547
-0.594384,0.296948,1.11874,-16.24,89.389999,-23.030001,1770467849.085609
-0.687836,0.294508,1.075552,-19.74,93.870003,-30.450001,1770467849.093577
-0.74908,0.313052,1.030656,-22.75,89.879997,-32.060001,1770467849.101572
-0.798856,0.352824,1.028948,-26.67,77.769997,-31.57,1770467849.109598
-0.818864,0.356728,1.060912,-25.34,63.07,-30.309999,1770467849.117538
-0.833504,0.32574,1.092144,-24.43,46.34,-22.610001,1770467849.125528
-0.853268,0.298412,1.086288,-21.0,31.92,-15.82,1770467849.133559
-0.87474,0.281576,1.04554,-15.82,16.940001,-9.94,1770467849.141678
-0.886452,0.274012,0.974536,-13.93,4.76,-7.77,1770467849.149547
-0.888892,0.27938,0.911096,-10.92,-3.92,-9.03,1770467849.157539
-0.875472,0.282308,0.85766,-7.77,-12.46,-8.12,1770467849.165535
-0.861808,0.285236,0.826916,-3.43,-17.15,-14.07,1770467849.173564
-0.841556,0.274012,0.810324,3.22,-20.02,-21.49,1770467849.181621
-0.80764,0.253028,0.81618,7.98,-21.139999,-27.65,1770467849.189639
-0.778116,0.233996,0.814716,11.41,-20.370001,-40.459999,1770467849.197534
-0.74298,0.178608,0.813252,14.35,-16.24,-46.060001,1770467849.205757
-0.69906,0.115656,0.794708,19.74,-15.19,-50.189999,1770467849.213553
-0.654896,0.069784,0.780068,22.540001,-20.860001,-52.990002,1770467849.221664
-0.61488,0.038796,0.790804,21.77,-31.15,-54.040001,1770467849.229575
-0.56852,0.035136,0.79544,26.74,-46.900002,-53.689999,1770467849.237535
-0.503616,0.030744,0.756644,32.130001,-66.779999,-50.75,1770467849.245537
-0.447008,0.043676,0.681248,46.200001,-85.75,-44.380001,1770467849.253561
-0.40016,0.075884,0.584868,56.98,-101.989998,-40.459999,1770467849.261576
-0.355752,0.098332,0.476044,73.639999,-118.720001,-36.75,1770467849.269589
-0.305244,0.1098,0.386252,91.0,-130.759995,-36.189999,1770467849.27753
-0.237656,0.139324,0.360876,105.209999,-141.399994,-43.68,1770467849.285528
-0.152256,0.21106,0.419436,112.839996,-150.5,-49.07,1770467849.293536
-0.053192,0.348188,0.518988,114.660004,-152.389999,-58.73,1770467849.301582
-0.00854,0.43798,0.642208,104.440002,-146.089996,-66.849998,1770467849.309602
0.0976,0.561444,0.718824,84.559998,-135.520004,-72.239998,1770467849.317651
0.217648,0.639036,0.79666,62.23,-126.559998,-68.110001,1770467849.325537
0.21716,0.56852,0.9089,31.08,-111.089996,-65.940002,1770467849.33354
0.260104,0.437004,1.0248,-1.75,-93.449997,-64.610001,1770467849.341576
0.29036,0.248148,1.172908,-25.9,-69.089996,-68.040001,1770467849.349579
0.292068,0.039284,1.336388,-32.689999,-42.490002,-65.029999,1770467849.357584
0.28792,-0.119316,1.49084,-33.880001,-16.379999,-67.059998,1770467849.365553
0.265472,-0.217648,1.597956,-32.34,3.78,-64.470001,1770467849.373544
0.238876,-0.235948,1.667008,-27.23,15.61,-63.77,1770467849.381574
0.172264,-0.26108,1.69214,-28.84,22.68,-63.560001,1770467849.389559
0.118828,-0.203008,1.673596,-28.0,29.889999,-59.849998,1770467849.397561
0.061732,-0.13176,1.61284,-27.23,33.32,-56.700001,1770467849.405628
-0.001708,-0.053436,1.517924,-26.809999,30.52,-47.389999,1770467849.413559
-0.045872,0.016592,1.410076,-28.77,25.9,-46.970001,1770467849.421632
-0.085644,0.067588,1.297836,-31.360001,15.54,-38.990002,1770467849.429734
-0.12688,0.098576,1.18706,-34.299999,7.63,-37.099998,1770467849.437543
-0.150548,0.1159,1.093608,-35.630001,4.41,-30.379999,1770467849.445543
-0.162992,0.132492,1.033096,-35.700001,5.53,-25.620001,1770467849.453556
-0.155428,0.16104,1.00894,-35.0,10.99,-20.370001,1770467849.461597
-0.142252,0.194956,1.00162,-37.099998,18.76,-14.56,1770467849.469633
-0.136396,0.225944,0.995032,-39.130001,24.08,-5.88,1770467849.477541
-0.136884,0.242292,0.953552,-40.880001,26.67,1.33,1770467849.485555
-0.147376,0.229848,0.85034,-41.439999,26.110001,13.58,1770467849.493686
-0.149816,0.193736,0.73078,-38.009998,21.42,18.48,1770467849.501581
-0.129076,0.142496,0.595116,-31.99,10.08,30.73,1770467849.509648
-0.138104,0.111752,0.482388,-20.299999,-2.45,40.040001,1770467849.517541
-0.128588,0.072956,0.403332,-6.37,-8.68,44.869999,1770467849.525589
-0.101992,0.05002,0.367708,13.86,-13.37,51.380001,1770467849.533529
-0.078324,0.062708,0.361608,33.459999,-12.81,52.290001,1770467849.541575
-0.05978,0.102968,0.402112,45.360001,-8.68,52.150002,1770467849.549551
-0.054412,0.168848,0.486292,54.459999,0.42,45.57,1770467849.557541
-0.050752,0.247172,0.630496,53.619999,11.76,37.799999,1770467849.565543
-0.047824,0.333304,0.782752,47.18,25.200001,28.84,1770467849.57357
-0.097844,0.467016,0.890844,34.860001,39.900002,16.309999,1770467849.581574
-0.16348,0.556076,0.986248,19.459999,55.439999,9.73,1770467849.589563
-0.237412,0.607316,1.01992,0.21,65.519997,7.63,1770467849.597577
-0.353556,0.634644,1.041636,-18.48,74.059998,3.36,1770467849.605568
-0.454572,0.588772,1.072868,-30.870001,82.32,2.31,1770467849.613568
-0.565836,0.491172,1.130696,-38.009998,94.5,-3.78,1770467849.621581
-0.674172,0.37332,1.204384,-42.209999,107.940002,-5.53,1770467849.6296
-0.757864,0.249856,1.270996,-46.549999,115.080002,-7.21,1770467849.637527
-0.84912,0.146644,1.3237,-45.43,111.720001,-13.3,1770467849.64555
-0.935496,0.032208,1.338096,-37.66,103.040001,-10.92,1770467849.653596
-1.011868,-0.038308,1.291004,-28.0,86.870003,-13.16,1770467849.661685
-1.130208,-0.183488,1.249768,-28.629999,69.089996,-11.62,1770467849.669548
-1.189256,-0.31232,1.166808,-29.75,50.82,-22.82,1770467849.677556
-1.112152,-0.320372,1.084092,-17.290001,24.780001,-27.65,1770467849.685557
-1.036024,-0.249368,1.027728,-2.45,-1.89,-29.120001,1770467849.69361
-0.943792,-0.165432,0.9821,6.23,-26.459999,-31.43,1770467849.701578
-0.830576,-0.062464,0.94306,14.0,-47.950001,-32.549999,1770467849.709671
-0.696376,-0.00732,0.929884,17.57,-60.34,-35.419998,1770467849.717533
-0.569252,0.032452,0.911584,19.110001,-69.510002,-38.639999,1770467849.725625
-0.473604,0.090768,0.910852,19.530001,-74.690002,-39.689999,1770467849.733544
-0.38064,0.145668,0.915,19.110001,-77.349998,-45.849998,1770467849.741594
-0.315492,0.194468,0.891576,18.129999,-79.800003,-46.759998,1770467849.749669
-0.25864,0.21472,0.823988,18.34,-84.0,-51.450001,1770467849.757548
-0.22936,0.215452,0.706868,18.41,-85.75,-50.68,1770467849.765545
-0.218868,0.210084,0.567544,25.129999,-87.360001,-54.25,1770467849.773543
-0.205204,0.18666,0.466772,31.57,-86.660004,-53.41,1770467849.781685
-0.183244,0.1281,0.415288,40.880001,-85.75,-57.959999,1770467849.789599
-0.13298,0.08052,0.427488,54.18,-85.68,-59.150002,1770467849.79754
-0.069784,0.098576,0.480436,66.989998,-82.459999,-58.73,1770467849.805563
-0.016104,0.15494,0.55144,74.970001,-80.010002,-59.779999,1770467849.813596
0.023912,0.229848,0.648308,72.449997,-74.760002,-56.84,1770467849.821581
0.033184,0.283284,0.765672,58.169998,-63.77,-59.990002,1770467849.829548
0.022448,0.302804,0.877424,43.119999,-46.27,-66.709999,1770467849.837538
0.086864,0.342332,0.98454,22.540001,-30.24,-67.620003,1770467849.84555
0.219356,0.396744,1.118496,11.55,-26.67,-57.400002,1770467849.853636
0.135664,0.301096,1.256356,-6.79,-24.01,-53.34,1770467849.861597
0.103212,0.176412,1.31638,-22.959999,-17.290001,-57.610001,1770467849.86955
0.082716,0.030256,1.372744,-29.33,-13.02,-55.860001,1770467849.877536
0.070272,-0.109556,1.481324,-34.299999,-7.98,-54.25,1770467849.885554
0.064904,-0.201788,1.623332,-31.219999,-3.99,-46.549999,1770467849.893553
0.046604,-0.247172,1.746552,-30.1,2.24,-40.880001,1770467849.901578
-0.001464,-0.31476,1.779736,-28.77,6.23,-34.369999,1770467849.909721
-0.058072,-0.313296,1.652368,-25.200001,7.14,-28.209999,1770467849.91758
-0.098332,-0.293044,1.478884,-21.42,0.0,-22.120001,1770467849.925547
-0.133712,-0.22692,1.289784,-15.89,-13.23,-17.360001,1770467849.933549
-0.199592,-0.188368,1.152168,-15.33,-25.76,-18.9,1770467849.941635
-0.188368,-0.15494,1.05286,-22.68,-35.77,-28.280001,1770467849.949584
-0.113948,-0.073688,1.005768,-21.559999,-45.43,-31.01,1770467849.95754
-0.053436,-0.003172,1.018456,-25.9,-45.990002,-21.35,1770467849.965542
-0.007076,0.051484,1.02846,-28.07,-43.540001,-19.110001,1770467849.973863
0.02318,0.071248,0.991616,-31.85,-34.439999,-10.22,1770467849.983052
0.036844,0.055388,0.892796,-31.360001,-26.67,-3.71,1770467849.989723
0.044408,0.024156,0.77836,-27.23,-20.58,1.68,1770467849.997613
0.055388,-0.002196,0.669292,-20.440001,-19.389999,9.52,1770467850.005613
0.068564,-0.031476,0.597556,-10.22,-22.469999,8.26,1770467850.013569
0.079788,-0.054168,0.548024,-0.56,-26.879999,12.11,1770467850.021596
0.101504,-0.059536,0.537288,11.2,-24.92,15.47,1770467850.029624
0.114436,-0.02806,0.562908,26.110001,-19.74,13.23,1770467850.037563
0.129564,0.039528,0.617564,33.110001,-9.03,20.58,1770467850.045551
0.131516,0.144448,0.690032,34.860001,3.22,20.16,1770467850.05355
0.096868,0.222284,0.781776,30.870001,19.879999,18.41,1770467850.061588
0.08418,0.321104,0.832528,14.98,36.330002,6.51,1770467850.069552
0.05002,0.344284,0.874984,4.13,48.509998,-4.27,1770467850.077537
-0.02318,0.383568,0.917196,-10.85,64.82,-12.6,1770467850.085544
0.006344,0.537776,0.943304,-18.129999,74.830002,4.55,1770467850.093695
-0.189588,0.571936,0.991372,-29.540001,87.989998,2.8,1770467850.101591
-0.286212,0.553392,1.00406,-41.509998,96.32,-10.92,1770467850.109624
-0.390156,0.50386,1.03456,-45.009998,104.720001,-18.9,1770467850.11754
-0.465552,0.412604,1.025288,-44.799999,111.510002,-27.16,1770467850.125537
-0.561932,0.331352,1.021872,-28.139999,114.870003,-24.639999,1770467850.133537
-0.660508,0.252784,1.041148,-12.18,114.029999,-24.360001,1770467850.141569
-0.732,0.203252,1.065792,0.77,103.599998,-21.35,1770467850.149592
-0.79422,0.174216,1.103124,20.440001,85.82,-18.129999,1770467850.157585
-0.855952,0.157136,1.13094,29.82,61.32,-14.49,1770467850.165553
-0.936472,0.073688,1.156804,29.889999,40.459999,-16.870001,1770467850.173538
-0.954528,-0.00122,1.13094,24.57,20.299999,-22.82,1770467850.181573
-0.969412,-0.137128,1.099464,16.24,-0.21,-33.810001,1770467850.189543
-0.944036,-0.260104,1.057984,20.370001,-18.200001,-39.759998,1770467850.19766
-0.896212,-0.375516,1.024068,25.969999,-34.860001,-41.439999,1770467850.205559
-0.844484,-0.4697,0.975024,36.189999,-50.119999,-45.849998,1770467850.213556
-0.757864,-0.527284,0.930616,53.41,-65.800003,-50.540001,1770467850.221572
-0.658556,-0.549,0.951112,65.309998,-80.57,-52.639999,1770467850.229589
-0.54412,-0.5307,0.987224,80.080002,-96.18,-58.310001,1770467850.237529
-0.4514,-0.476044,1.018456,85.120003,-110.110001,-60.759998,1770467850.245557
-0.328424,-0.373564,1.087264,89.949997,-124.18,-66.360001,1770467850.253636
-0.220576,-0.219356,1.170224,82.879997,-129.850006,-66.57,1770467850.261574
-0.126148,-0.052948,1.247816,69.790001,-129.5,-67.830002,1770467850.269546
-0.052704,0.078812,1.261236,52.220001,-123.199997,-65.239998,1770467850.277535
0.029768,0.177876,1.214144,34.860001,-115.220001,-64.260002,1770467850.285524
0.100528,0.232288,1.151436,21.42,-106.330002,-59.5,1770467850.293542
0.116144,0.217404,1.08702,7.63,-91.0,-67.059998,1770467850.30167
0.232044,0.247172,0.987224,-4.34,-84.769997,-74.690002,1770467850.309828
0.41968,0.445788,0.9211,3.36,-88.970001,-39.689999,1770467850.317541
0.339648,0.50386,0.9211,-12.53,-79.169998,-26.18,1770467850.325616
0.311588,0.539728,0.859368,-30.030001,-61.740002,-18.690001,1770467850.333541
0.281576,0.537532,0.770552,-48.23,-42.560001,-17.08,1770467850.341576
0.2379,0.493124,0.696864,-66.919998,-23.799999,-14.63,1770467850.349553
0.204716,0.428464,0.638304,-78.75,-6.72,-18.34,1770467850.357638
0.177388,0.358192,0.604388,-85.959999,8.4,-17.99,1770467850.365571
0.159332,0.284504,0.598776,-84.209999,21.77,-18.549999,1770467850.373542
0.157868,0.18544,0.650992,-76.650002,29.4,-24.01,1770467850.38158
0.16958,0.073444,0.729804,-68.529999,38.009998,-23.309999,1770467850.38962
0.167872,-0.025376,0.806908,-49.279999,44.66,-23.940001,1770467850.39754
0.158112,-0.111264,0.90768,-29.75,53.200001,-16.52,1770467850.405643
0.141032,-0.179096,1.001376,-13.3,60.41,-8.33,1770467850.413556
0.098576,-0.202276,1.039684,7.91,65.239998,1.61,1770467850.421573
0.082472,-0.234728,1.042124,23.73,65.099998,16.379999,1770467850.429602
0.035868,-0.27084,1.01748,37.450001,58.66,24.290001,1770467850.437694
-0.007808,-0.281332,1.01138,48.09,51.939999,34.860001,1770467850.445542
-0.040992,-0.299632,0.988932,57.75,41.509998,49.91,1770467850.453549
-0.331352,-0.493612,1.086288,50.75,36.119999,46.130001,1770467850.461579
-0.2135,-0.43554,1.16388,48.509998,31.08,40.18,1770467850.469676
-0.265228,-0.442372,1.335656,45.080002,32.549999,39.27,1770467850.47754
-0.3172,-0.391132,1.46888,43.68,35.560001,38.009998,1770467850.485548
-0.35258,-0.326472,1.545252,36.75,36.400002,40.040001,1770467850.493547
-0.39894,-0.241804,1.565748,25.200001,33.18,37.799999,1770467850.501691
-0.460672,-0.138104,1.555012,10.43,31.5,33.18,1770467850.509668
-0.546072,-0.043432,1.493036,-2.31,34.860001,20.51,1770467850.517582
-0.610732,0.022692,1.3847,-18.969999,42.98,3.71,1770467850.525552
-0.645624,0.072712,1.281976,-30.24,50.610001,-13.37,1770467850.533614
-0.65758,0.10736,1.207068,-35.98,55.580002,-34.02,1770467850.541625
-0.639036,0.147864,1.10776,-41.509998,54.110001,-42.84,1770467850.549556
-0.618052,0.20618,0.982832,-41.860001,43.889999,-53.34,1770467850.557539
-0.586576,0.269864,0.826916,-39.689999,29.540001,-60.060001,1770467850.565552
-0.557784,0.330864,0.709308,-36.119999,9.52,-59.990002,1770467850.573541
-0.499224,0.34648,0.622932,-34.23,-14.14,-67.480003,1770467850.581637
-0.515328,0.454328,0.531432,-31.92,-31.01,-76.93,1770467850.589558
-0.422608,0.559004,0.446032,-22.68,-40.110001,-79.309998,1770467850.597548
-0.266448,0.620248,0.487512,-19.950001,-65.800003,-57.400002,1770467850.605534
-0.236192,0.643916,0.510936,-13.58,-79.169998,-46.759998,1770467850.613649
-0.19154,0.647088,0.5185,-9.52,-88.199997,-44.52,1770467850.621573
-0.138836,0.640988,0.502396,-7.84,-94.080002,-32.130001,1770467850.629572
-0.083936,0.621712,0.47458,-3.92,-94.57,-27.23,1770467850.63754
-0.045628,0.597312,0.455792,-1.19,-92.68,-8.82,1770467850.64558
-0.0427,0.552416,0.441396,12.11,-85.190002,0.63,1770467850.653533
-0.055876,0.474824,0.457988,24.5,-72.239998,11.55,1770467850.661575
-0.091256,0.3721,0.495564,33.32,-54.810001,16.24,1770467850.669554
-0.135176,0.241316,0.550708,46.689999,-36.470001,9.38,1770467850.677573
-0.18544,0.10248,0.695888,62.650002,-15.96,3.08,1770467850.685542
-0.256688,0.034892,0.946476,82.32,8.68,-6.23,1770467850.693624
-0.363072,0.016592,1.292468,91.209999,28.07,-9.59,1770467850.701587
-0.505812,-0.031232,1.66286,82.18,30.309999,-18.9,1770467850.709581
-0.61488,-0.15006,1.861476,66.989998,25.34,-17.780001,1770467850.717605
-0.830088,-0.463844,1.917596,47.18,4.76,-43.68,1770467850.725576
-0.854244,-0.680272,1.92028,40.459999,-21.700001,-53.34,1770467850.733542
-0.773724,-0.743712,1.934676,36.540001,-53.41,-57.049999,1770467850.741575
-0.588528,-0.859124,1.968592,20.09,-87.57,-45.849998,1770467850.749552
-0.364048,-0.809348,1.914668,11.9,-119.910004,-39.689999,1770467850.757602
-0.15982,-0.64416,1.846836,0.14,-140.210007,-28.0,1770467850.765579
0.06466,-0.440664,1.764364,-10.99,-152.529999,-19.110001,1770467850.773536
0.207888,-0.18544,1.5921,-14.77,-152.529999,-9.24,1770467850.781566
0.26352,0.022692,1.358836,-16.66,-141.119995,-3.71,1770467850.789578
0.233752,0.107848,1.114348,-13.02,-114.660004,-3.5,1770467850.797543
0.316224,0.22448,0.882304,-3.57,-103.529999,-19.950001,1770467850.805539
0.579256,0.615124,0.62708,18.41,-82.879997,10.29,1770467850.813642
0.384788,0.509228,0.594872,29.049999,-63.139999,29.610001,1770467850.821579
0.34038,0.540704,0.488,29.190001,-44.450001,38.919998,1770467850.829549
0.295484,0.584136,0.365756,25.41,-26.74,42.139999,1770467850.837541
0.256932,0.600972,0.250832,17.57,-12.67,44.52,1770467850.845549
0.208376,0.603656,0.140544,9.45,-3.43,43.189999,1770467850.85366
0.15982,0.601704,0.067832,-1.12,1.89,40.25,1770467850.861587
0.131272,0.566324,0.023668,-15.68,7.56,38.57,1770467850.869556
0.128344,0.502152,0.005612,-26.110001,12.88,29.610001,1770467850.877571
0.15494,0.403332,0.01952,-30.59,17.85,27.58,1770467850.885542
0.18056,0.300364,0.07442,-28.98,26.530001,22.540001,1770467850.893566
0.219112,0.180804,0.196908,-17.57,37.869999,16.940001,1770467850.901707
0.257664,0.049776,0.408456,-8.96,52.5,8.19,1770467850.909656
0.302316,-0.102968,0.676856,10.78,69.440002,3.99,1770467850.91766
0.367708,-0.222772,0.964532,31.08,88.480003,5.04,1770467850.925556
0.327448,-0.314028,1.281244,50.119999,113.75,8.82,1770467850.933545
0.261568,-0.35502,1.568432,60.200001,136.5,15.19,1770467850.941573
0.139568,-0.359412,1.868308,54.950001,154.630005,16.799999,1770467850.949556
-0.011712,-0.406504,2.223084,40.25,155.259995,15.26,1770467850.957555
-0.149572,-0.448716,2.487092,20.58,145.25,20.23,1770467850.965544
-0.311588,-0.493856,2.411208,14.98,120.959999,31.92,1770467850.973773
-0.654652,-0.506788,2.063264,-0.42,115.5,26.459999,1770467850.9818
-0.795196,-0.43554,1.74216,-14.14,102.970001,15.47,1770467850.989651
-0.91256,-0.331352,1.530856,-20.440001,92.610001,3.22,1770467850.997545
-0.98576,-0.163724,1.41764,-22.26,84.07,-4.27,1770467851.005591
-0.998936,0.03172,1.37616,-24.780001,68.739998,-16.940001,1770467851.013702
-0.969168,0.194468,1.3359,-28.0,48.439999,-21.139999,1770467851.021578
-0.915,0.306708,1.278804,-34.650002,24.43,-31.780001,1770467851.029601
-0.830332,0.384788,1.170224,-42.630001,1.96,-34.16,1770467851.037528
-0.732976,0.444324,0.99552,-45.43,-20.02,-37.66,1770467851.045537
-0.638792,0.467992,0.826184,-46.549999,-47.32,-46.830002,1770467851.053623
-0.529968,0.446032,0.690764,-43.889999,-73.779999,-55.720001,1770467851.061578
-0.476532,0.476044,0.570228,-34.650002,-92.120003,-73.919998,1770467851.069557
-0.363072,0.527528,0.441396,-24.15,-109.059998,-80.5,1770467851.07754
-0.20008,0.642452,0.373076,-17.43,-122.080002,-73.849998,1770467851.08554
-0.122976,0.684908,0.321348,-14.35,-133.279999,-63.560001,1770467851.093552
-0.048556,0.730048,0.255224,-13.79,-140.279999,-56.490002,1770467851.101672
0.008784,0.745176,0.191784,-16.799999,-143.429993,-46.27,1770467851.10966
0.062464,0.761768,0.1342,-18.969999,-144.970001,-39.900002,1770467851.117549
0.13542,0.753716,0.094916,-16.1,-142.520004,-23.73,1770467851.125538
0.178608,0.708576,0.10248,-14.91,-130.410004,-13.51,1770467851.133581
0.228384,0.671732,0.1403,-12.32,-112.769997,-7.77,1770467851.141538
0.26108,0.656848,0.219844,-18.969999,-89.110001,-1.05,1770467851.149683
0.289384,0.604144,0.347456,-27.58,-58.240002,1.12,1770467851.157531
0.287188,0.472872,0.500932,-39.549999,-20.58,2.1,1770467851.16552
0.252296,0.273524,0.653188,-51.099998,23.1,-2.87,1770467851.173534
0.198128,0.044652,0.797392,-60.759998,66.220001,-12.95,1770467851.181579
0.125416,-0.096624,0.979904,-63.77,104.089996,-15.61,1770467851.189571
0.089548,-0.333304,1.35542,-65.099998,122.849998,-11.69,1770467851.197576
-0.116388,-0.495076,1.732644,-69.790001,130.410004,0.28,1770467851.20554
-0.690276,-1.242936,2.002996,-83.230003,145.740005,-29.120001,1770467851.213551
-1.016016,-1.565016,2.059848,-61.18,120.190002,-26.32,1770467851.221574
-1.248304,-1.725568,2.018612,-57.400002,56.279999,-22.4,1770467851.229598
-1.277584,-1.592344,1.866356,-52.990002,-36.470001,-27.51,1770467851.237545
-1.047004,-1.193648,1.670668,-47.740002,-128.520004,-31.01,1770467851.245532
-0.719556,-0.70882,1.586244,-40.740002,-198.729996,-29.889999,1770467851.253567
-0.355508,-0.245708,1.577948,-41.439999,-238.279999,-31.43,1770467851.261631
-0.039528,0.150304,1.558428,-50.959999,-252.839996,-28.77,1770467851.26954
0.12444,0.281088,1.489864,-75.529999,-238.630005,-28.42,1770467851.277531
0.278648,0.52338,1.240496,-95.129997,-215.389999,-60.41,1770467851.285519
0.72346,0.955992,0.925492,-80.779999,-185.5,-11.13,1770467851.293565
0.563152,0.829356,0.832528,-97.510002,-154.770004,11.2,1770467851.301584
0.586332,0.720044,0.68076,-116.339996,-116.970001,17.360001,1770467851.309631
0.600484,0.513376,0.562664,-121.940002,-74.410004,30.379999,1770467851.317565
0.60024,0.260592,0.515084,-119.839996,-31.01,25.200001,1770467851.32559
0.586332,0.00488,0.539484,-104.089996,7.63,28.700001,1770467851.333538
0.518256,-0.193736,0.571692,-87.43,39.619999,24.92,1770467851.341665
0.474336,-0.33916,0.576816,-66.779999,65.309998,28.559999,1770467851.349549
0.404308,-0.491172,0.635864,-44.52,80.5,42.419998,1770467851.357541
0.427976,-0.535092,0.761768,-11.55,90.510002,59.220001,1770467851.365541
0.324276,-0.837408,1.055544,3.57,77.279999,46.759998,1770467851.373572
0.184952,-0.7137,0.906216,-2.03,88.339996,10.15,1770467851.381678
0.123708,-0.679784,0.698084,-5.32,79.870003,17.780001,1770467851.389556
0.071492,-0.740296,0.533872,-1.89,70.279999,18.41,1770467851.397539
0.057828,-0.853756,0.451156,3.01,64.120003,24.780001,1770467851.405554
0.055876,-0.947696,0.468968,14.42,63.279999,31.43,1770467851.413824
0.071248,-1.024068,0.568276,28.77,63.279999,24.92,1770467851.421588
0.073444,-1.057984,0.679052,41.439999,64.190002,32.970001,1770467851.429551
0.0671,-1.050908,0.757376,55.09,63.0,22.959999,1770467851.437535
0.061244,-1.01504,0.79178,63.630001,57.540001,21.84,1770467851.445612
0.07076,-0.97112,0.838872,73.849998,48.509998,15.26,1770467851.453542
0.103212,-0.91012,0.91134,83.650002,38.290001,10.5,1770467851.46158
0.186172,-0.818864,1.006988,92.190002,23.52,14.7,1770467851.469571
0.264984,-0.683688,1.15778,104.160004,14.42,7.7,1770467851.477544
0.282552,-0.478728,1.288076,113.330002,20.65,2.45,1770467851.485618
0.23912,-0.244,1.35298,112.839996,39.060001,-10.01,1770467851.493541
0.1647,-0.022448,1.38104,102.690002,67.410004,-18.34,1770467851.501616
0.075152,0.15494,1.410076,87.849998,94.220001,-22.82,1770467851.509598
-0.040748,0.225456,1.441552,73.43,114.940002,-25.83,1770467851.517724
-0.204472,0.44408,1.438868,62.650002,129.639999,-35.77,1770467851.525544
-0.338428,0.509228,1.47986,52.220001,137.550003,-39.759998,1770467851.533522
-0.460428,0.546316,1.47742,40.32,134.190002,-48.16,1770467851.541569
-0.518744,0.600972,1.380064,35.419998,116.970001,-51.380001,1770467851.54987
-0.551196,0.646112,1.236592,31.780001,87.709999,-43.330002,1770467851.557533
-0.601704,0.558028,1.072136,26.32,51.939999,-45.639999,1770467851.56554
-0.555344,0.461892,0.861808,28.07,19.879999,-44.029999,1770467851.573545
-0.478484,0.37576,0.736148,35.0,-5.53,-39.619999,1770467851.581693
-0.404308,0.30988,0.631716,42.490002,-20.440001,-31.780001,1770467851.589553
-0.352092,0.265228,0.50996,55.299999,-28.0,-25.27,1770467851.597535
-0.3233,0.23668,0.397232,64.330002,-32.759998,-16.73,1770467851.605553
-0.331596,0.232776,0.2989,74.620003,-32.900002,-8.12,1770467851.613545
-0.342576,0.254004,0.25254,84.769997,-31.780001,-6.79,1770467851.621668
-0.34282,0.30256,0.258152,84.559998,-32.549999,-1.68,1770467851.629549
-0.318908,0.334036,0.301584,82.110001,-37.869999,0.56,1770467851.637532
-0.281576,0.334768,0.386984,68.32,-42.77,7.56,1770467851.64554
-0.251564,0.349896,0.532408,56.07,-47.459999,12.53,1770467851.653587
-0.242292,0.381128,0.681736,35.07,-49.209999,10.29,1770467851.661573
-0.247904,0.38308,0.82106,11.34,-51.240002,6.23,1770467851.66955
-0.251076,0.306708,0.978196,-13.23,-51.380001,0.63,1770467851.677521
-0.24766,0.16958,1.1224,-30.1,-50.330002,-8.26,1770467851.685538
-0.25742,-0.02196,1.282708,-37.869999,-49.209999,-14.91,1770467851.693539
-0.299388,-0.187392,1.50792,-46.549999,-42.419998,-15.61,1770467851.701631
-0.443104,-0.382592,1.811944,-53.549999,-27.09,-11.48,1770467851.709725
-0.5673,-0.6344,2.03618,-63.98,-17.219999,-19.530001,1770467851.71757
-0.667584,-0.701256,2.170624,-59.290001,-19.25,-9.59,1770467851.725545
-0.746152,-0.754936,2.117676,-52.080002,-37.799999,-5.46,1770467851.733642
-0.76616,-0.572668,1.8666,-40.810001,-70.419998,-4.62,1770467851.741575
-0.682468,-0.290604,1.61528,-32.759998,-114.660004,-5.18,1770467851.749727
-0.507276,0.005368,1.473028,-32.41,-156.520004,-5.88,1770467851.757532
-0.261568,0.2379,1.40178,-34.790001,-186.970001,-3.99,1770467851.765546
-0.046116,0.2989,1.33712,-42.419998,-201.809998,-4.27,1770467851.773542
0.10736,0.314028,1.154608,-49.98,-198.449997,-16.940001,1770467851.781611
0.324032,0.338672,0.977952,-57.119999,-211.050003,-23.940001,1770467851.789656
0.50996,0.61122,0.742492,-30.309999,-197.539993,24.360001,1770467851.797647
