acc_x,acc_y,acc_z,gyro_x,gyro_y,gyro_z,timestamp
-4.607757,-0.7587838800000001,8.9282772,14.21,-0.77,29.049999,1770467838.226158
-4.81600368,-0.53378172,9.12934296,15.82,-5.32,27.719999,1770467838.233985
-4.950047520000001,-0.18909756000000003,9.98626608,15.68,-10.22,28.84,1770467838.241988
-5.119995960000001,0.37580148,10.26153468,16.1,-13.79,26.67,1770467838.250054
-5.239677960000001,0.33750324,9.73254024,13.3,-14.63,28.139999,1770467838.257946
-5.325849000000001,0.36383328000000004,9.42854796,14.0,-17.08,22.610001,1770467838.265957
-5.43835008,0.5074516800000001,9.14849208,14.42,-23.030001,23.309999,1770467838.27405
-5.42398824,0.74920932,8.7008814,17.639999,-31.780001,14.91,1770467838.281996
-5.1822306,1.1609154000000002,8.60274216,14.63,-38.009998,15.68,1770467838.290116
-4.751375400000001,1.34761932,8.346622680000001,14.28,-42.98,4.34,1770467838.297957
-4.5598842,1.1202235200000001,8.92588356,16.309999,-40.389999,-1.26,1770467838.305964
-4.129029,1.2877783200000001,8.97854364,21.209999,-40.25,-6.79,1770467838.31396
-3.77716392,1.55107872,9.155673,22.889999,-41.02,-7.91,1770467838.322013
-3.6407264400000003,1.67794164,9.1796094,27.51,-39.689999,-14.21,1770467838.329973
-3.5880663600000005,1.7090589600000001,9.10301292,26.67,-40.040001,-12.11,1770467838.337966
-3.4181179200000003,1.5151741200000002,9.39024972,32.970001,-40.459999,-16.66,1770467838.345968
-3.21705216,1.72581444,8.95460724,36.540001,-34.439999,-21.07,1770467838.353976
-3.3941815200000005,1.6994844000000002,8.91870264,36.959999,-32.689999,-20.23,1770467838.361962
-3.470778,1.70187804,8.88997896,38.009998,-34.02,-25.27,1770467838.36996
-3.20508396,1.79523,9.1317366,35.419998,-30.799999,-25.620001,1770467838.377966
-3.0830083200000002,2.17581876,9.06950196,33.529999,-30.59,-28.84,1770467838.3861
-2.9561454,2.32422444,8.9282772,33.669998,-26.25,-33.25,1770467838.393959
-1.9388484000000001,3.76040844,8.89955352,21.0,-21.35,-43.540001,1770467838.401963
-1.61331336,4.14339084,9.34237692,11.34,-11.41,-41.09,1770467838.410077
-1.6755480000000003,4.751375400000001,9.6583374,-1.05,-2.66,-42.560001,1770467838.417945
-1.7090589600000001,4.4904686400000005,9.71339112,-9.24,-0.14,-47.950001,1770467838.425967
-0.9694242000000001,4.62451248,9.97908516,-17.219999,0.84,-48.650002,1770467838.434075
-0.26808768000000005,3.8346112800000003,10.39557852,-23.1,6.09,-42.700001,1770467838.441974
0.02872368,3.4995016800000003,11.321917200000001,-22.889999,5.53,-42.139999,1770467838.449965
0.43803612,1.37873664,11.6929314,-13.44,9.87,-30.030001,1770467838.457972
-0.04069188,1.40746032,11.88681624,0.98,9.45,-25.200001,1770467838.466126
-0.1316502,0.85692312,12.0160728,9.24,12.32,-20.58,1770467838.473969
-0.63670824,-0.05505372,11.690537760000002,16.030001,17.57,-14.49,1770467838.481967
-1.31410836,-1.45293948,11.130426000000002,25.200001,21.91,-11.48,1770467838.489985
-1.5702278400000003,-2.5755566400000003,10.735475400000002,34.23,28.07,-7.98,1770467838.497999
-1.68272892,-3.28168044,10.675634400000002,42.209999,34.439999,-7.77,1770467838.505963
-1.8263473200000002,-3.88009044,10.77377364,45.290001,40.740002,-5.95,1770467838.513959
-1.98911484,-3.81546216,10.82643372,44.73,44.450001,-1.82,1770467838.521973
-2.08486044,-3.57131088,10.723507200000002,42.349998,47.880001,-3.71,1770467838.530122
-2.6138548800000003,-3.1380620400000003,10.42908948,38.220001,47.599998,0.63,1770467838.537943
-2.86997436,-2.52050292,10.318982040000002,34.509998,41.860001,3.57,1770467838.545966
-2.8747616400000005,-2.00108304,10.0054152,28.77,34.790001,2.52,1770467838.553958
-2.6689086000000004,-1.88858196,9.24663132,25.9,31.219999,7.35,1770467838.561962
-2.32661808,-1.7832618,8.61471036,26.32,30.52,7.0,1770467838.569953
-1.88618832,-1.38113028,8.74396692,24.85,32.27,10.85,1770467838.577987
-1.6731543600000003,-0.80426304,9.275355000000001,22.889999,35.98,15.26,1770467838.586051
-1.9603911600000001,-0.31596048000000004,9.5865282,19.459999,39.970001,15.82,1770467838.593963
-2.35534176,0.05505372,9.703816560000002,16.24,43.889999,17.15,1770467838.601992
-2.65933404,0.13404384000000003,9.8498286,16.870001,48.650002,18.27,1770467838.610036
-2.97768816,0.30399228000000006,10.04610708,16.450001,53.759998,19.950001,1770467838.617966
-3.3630642,0.42846156,10.21844916,18.34,57.889999,21.42,1770467838.625958
-3.6143964,0.42606792,10.18733184,17.639999,57.540001,22.4,1770467838.63396
-3.6550882799999997,0.5289944400000001,9.852222240000001,11.62,55.790001,27.93,1770467838.641958
-3.5066826,0.7420284,9.43333524,3.71,52.080002,32.41,1770467838.650067
-3.470778,0.8617104000000001,9.02881008,-2.24,47.18,35.77,1770467838.658208
-3.4827462000000002,0.9885733200000001,9.0000864,-5.25,43.540001,40.389999,1770467838.665956
-3.6455137200000003,1.2590546400000002,9.19875852,-13.23,39.970001,39.48,1770467838.67397
-3.82024944,1.5486850800000003,9.4429098,-19.32,38.639999,43.540001,1770467838.681966
-3.8058876000000006,1.7904427200000002,9.3591324,-27.23,35.0,39.060001,1770467838.690007
-4.191263640000001,2.0345940000000002,9.155673,-36.119999,31.08,42.84,1770467838.698058
-4.5886078800000005,1.92209292,9.380675160000001,-37.869999,19.32,38.919998,1770467838.705984
-4.51440504,2.22129792,9.78759396,-40.25,3.85,40.669998,1770467838.713958
-4.34924388,2.4774174,9.94796784,-43.889999,-11.34,41.580002,1770467838.721962
-3.8992395600000003,2.8843362000000003,9.8977014,-42.91,-22.469999,41.720001,1770467838.730013
-3.1452429600000005,2.8915171200000005,9.847434960000001,-47.32,-27.09,46.200001,1770467838.737958
-2.7407178,2.8077397200000003,9.8378604,-48.790001,-24.57,52.779999,1770467838.74606
-2.54204568,2.72396232,9.454878,-48.09,-22.82,54.25,1770467838.753963
-2.59470576,2.5540138800000003,8.574018480000001,-43.889999,-20.440001,62.16,1770467838.761961
-2.6234294400000002,2.2189042800000003,7.85832012,-36.68,-14.7,65.660004,1770467838.769958
-2.6736958800000004,2.2739580000000004,7.74103176,-36.119999,-7.56,70.209999,1770467838.777984
-2.75747328,2.5803439200000002,8.27720712,-33.110001,-2.17,75.739998,1770467838.786011
-2.90348532,2.9154535200000002,8.92348992,-38.57,0.77,72.029999,1770467838.793968
-3.20987124,3.1213065600000003,9.36870696,-43.75,4.27,76.720001,1770467838.80196
-3.4229052,3.2912550000000005,9.62961372,-49.209999,7.28,80.639999,1770467838.809968
-3.72450384,3.3391278000000004,9.507538080000002,-59.43,8.4,85.82,1770467838.818009
-4.129029,3.3463087200000006,9.01923552,-66.989998,6.86,90.510002,1770467838.825941
-4.46653224,3.26971224,8.39210184,-74.410004,6.44,94.57,1770467838.833966
-4.84472736,3.35588328,7.705127160000001,-84.07,4.55,98.980003,1770467838.841964
-5.249252520000001,3.61918368,7.15458996,-93.870003,-0.49,104.720001,1770467838.849979
-5.42638188,3.82264308,6.9535242,-100.940002,-9.66,111.300003,1770467838.857971
-5.28515712,3.86333496,7.075599840000001,-106.400002,-18.549999,115.779999,1770467838.86596
-5.119995960000001,3.9734424,7.35804936,-112.629997,-29.049999,117.25,1770467838.873992
-4.84233372,4.0261024800000005,7.611775200000001,-117.529999,-36.68,124.110001,1770467838.881958
-4.5981824399999995,4.38993576,7.59023244,-122.849998,-45.150002,126.0,1770467838.889969
-4.22956188,4.31094564,7.413103080000001,-129.289993,-49.349998,131.179993,1770467838.898045
-4.083549840000001,4.53355416,7.0732062,-133.490005,-54.599998,140.139999,1770467838.905965
-4.1409972,4.84472736,6.64713828,-139.860001,-59.43,145.669998,1770467838.91398
-4.31573292,4.751375400000001,6.678255600000001,-148.330002,-64.959999,154.770004,1770467838.921967
-4.3181265600000005,3.9495060000000004,7.3652302800000005,-150.080002,-70.559998,154.630005,1770467838.930004
-3.9925915200000004,2.18299968,8.24369616,-146.160004,-71.260002,162.190002,1770467838.938017
-3.5569490400000006,0.29202408,8.868436200000001,-130.270004,-68.110001,157.220001,1770467838.945962
-2.9800818000000002,-1.8718264800000002,9.459665280000001,-115.010002,-61.32,159.039993,1770467838.954001
-1.9053374400000003,-1.8957628800000002,9.888126840000002,-90.860001,-56.77,159.880005,1770467838.961968
-0.18431028,-6.642351000000001,12.332033280000001,-74.830002,-55.09,189.630005,1770467838.970184
-2.3912463600000002,-9.2394504,13.76103636,-60.619999,-12.46,155.539993,1770467838.978403
-1.0101160800000002,-11.97298728,14.23737072,-26.530001,-2.03,132.089996,1770467838.986401
-1.0962871200000002,-11.242927080000001,14.03151768,8.75,-0.49,122.849998,1770467838.993981
-1.1992136400000002,-9.54344268,14.471947440000001,35.84,-1.47,128.449997,1770467839.001961
-1.08671256,-7.94209752,15.644831040000001,50.189999,-8.33,112.559998,1770467839.009965
-1.0340524800000002,-6.22585764,16.496966880000002,54.529999,-16.309999,115.010002,1770467839.017961
-1.1848518000000001,-4.30137108,16.513722360000003,54.32,-20.58,106.82,1770467839.026034
-1.26623556,-2.5276838400000003,15.72382116,49.209999,-22.26,107.800003,1770467839.034018
-1.20400092,-1.34522568,14.555724840000002,44.310001,-24.92,105.209999,1770467839.041965
-1.08192528,-0.71091108,13.370873040000001,40.389999,-26.879999,102.059998,1770467839.049959
-0.82819944,-0.45239796,12.145329360000002,32.41,-23.030001,108.080002,1770467839.057957
-0.5170262400000001,-0.30399228000000006,10.88866836,34.09,-17.08,108.150002,1770467839.06607
-0.33750324,-0.23936400000000002,9.7899876,36.959999,-7.0,113.889999,1770467839.073976
-0.29202408,0.01436184,8.64343404,45.220001,5.32,114.309998,1770467839.081966
-0.5050580400000001,0.5050580400000001,7.410709440000001,58.66,17.85,121.660004,1770467839.089974
-1.03644612,1.14415992,6.146867520000001,71.540001,28.42,127.050003,1770467839.097953
-1.5391105200000001,2.08007316,5.443137360000001,82.459999,37.099998,130.690002,1770467839.106004
-2.3984272800000004,2.7694414800000002,4.37796756,85.959999,41.509998,132.089996,1770467839.113956
-3.3702451200000003,3.051891,3.6526946400000004,82.32,40.18,133.419998,1770467839.121958
-4.3181265600000005,4.368393,3.1643920800000003,79.099998,34.720001,130.479996,1770467839.129952
-5.02425036,4.8710574,3.56173632,67.550003,25.549999,121.519997,1770467839.137951
-5.76388512,5.40244548,4.15775268,51.799999,15.75,103.459999,1770467839.145956
-5.00749488,6.83144856,4.67238528,42.139999,0.63,106.260002,1770467839.153992
-6.5442117600000005,7.42746492,5.550851160000001,28.559999,-7.91,101.150002,1770467839.161996
-6.783575760000001,7.7769363600000005,6.1157502,9.45,-18.34,89.32,1770467839.170003
-6.81948036,7.84874556,6.24021948,-6.86,-25.76,84.07,1770467839.177951
-6.91283232,7.7984791200000005,5.577181200000001,-22.120001,-34.369999,80.010002,1770467839.185972
-7.05884436,7.53517872,4.634087040000001,-33.040001,-43.119999,68.32,1770467839.194041
-7.06841892,7.0253334,3.8034939600000004,-35.209999,-52.849998,62.790001,1770467839.201981
-6.788363040000001,6.194740320000001,3.3941815200000005,-33.110001,-63.349998,53.060001,1770467839.209952
-6.2952732,5.1104214,3.8034939600000004,-35.630001,-73.080002,46.34,1770467839.217951
-5.579574840000001,4.14339084,4.4641386,-35.700001,-83.019997,42.84,1770467839.225955
-4.906962,3.1452429600000005,5.17744332,-36.330002,-93.029999,38.990002,1770467839.233973
-4.40908488,2.4510873600000003,5.75431056,-44.450001,-98.139999,44.939999,1770467839.242071
-3.74125932,1.9867212,6.3072414,-53.970001,-103.040001,49.0,1770467839.249981
-2.94896448,1.4840568,6.8099058,-60.689999,-103.459999,54.389999,1770467839.257953
-1.9292738400000002,1.2087882,7.908586560000001,-66.779999,-102.690002,58.310001,1770467839.265954
-0.5601117600000001,1.2231500400000002,10.055681640000001,-80.43,-99.330002,64.959999,1770467839.273953
0.74920932,1.3404384000000003,12.94241148,-99.120003,-94.220001,73.779999,1770467839.281953
1.40746032,1.23511824,15.28099776,-122.080002,-81.620003,84.489998,1770467839.290009
2.8915171200000005,0.72527292,15.946429680000001,-143.639999,-63.209999,97.860001,1770467839.297969
3.3271596000000003,-0.11489472,14.024336760000002,-140.279999,-46.900002,118.580002,1770467839.305967
2.79337788,-1.01250972,12.7102284,-122.5,-26.459999,125.440002,1770467839.313956
2.10879684,-1.496025,12.25304316,-97.860001,-4.69,128.940002,1770467839.32196
1.06756344,-1.5175677600000002,12.545067240000002,-75.529999,17.780001,126.279999,1770467839.330009
-0.3710142,-1.12979808,13.112359920000001,-57.959999,32.549999,122.43,1770467839.337969
-1.9268802000000003,-0.4547916,13.48576776,-50.119999,36.400002,112.349998,1770467839.345959
-2.99205,0.58883544,13.72991904,-51.240002,26.950001,107.029999,1770467839.353956
-3.37981968,1.0651698,13.95731484,-53.200001,3.22,95.269997,1770467839.361957
-2.752686,0.51223896,13.744280880000002,-53.41,-28.77,76.300003,1770467839.369977
-1.5606532800000001,-0.42128064000000004,12.58336548,-45.919998,-56.419998,64.400002,1770467839.377948
0.0359046,-1.57501512,11.42484372,-37.66,-72.449997,56.77,1770467839.385959
1.93406112,-2.8484316,10.70435808,-26.110001,-81.339996,57.68,1770467839.393979
3.0734337600000003,-4.86148284,10.58706972,-18.969999,-89.25,45.779999,1770467839.40196
3.66466284,-7.45858224,10.91978568,-13.23,-85.470001,35.209999,1770467839.410077
5.31866808,-8.89955352,11.135213280000002,2.31,-75.25,31.85,1770467839.417996
6.063090120000001,-9.68945472,11.61633492,21.42,-59.43,33.529999,1770467839.425962
6.41974248,-9.64397556,12.320065080000001,35.349998,-34.860001,33.18,1770467839.433945
6.2952732,-9.23705676,12.84905952,46.060001,-3.36,35.139999,1770467839.441957
5.47664832,-8.487847440000001,12.904113240000001,51.52,24.99,42.700001,1770467839.449962
3.88009044,-7.499274120000001,12.40862976,52.639999,41.860001,50.049999,1770467839.457962
2.0585304,-6.29766684,12.19080852,53.970001,48.509998,62.790001,1770467839.466047
0.47394072000000004,-4.56945876,11.81740068,54.740002,45.5,65.309998,1770467839.473988
-1.0603825199999999,-2.7766224000000004,11.434418280000001,50.889999,33.740002,73.360001,1770467839.482009
-2.4032145600000003,-1.0340524800000002,11.17351152,47.740002,17.639999,78.889999,1770467839.489995
-3.59046,0.2513322,10.96047756,41.580002,-4.13,81.690002,1770467839.49798
-4.0572198,1.08192528,10.63015524,37.169998,-25.48,87.43,1770467839.506089
-4.2846156,1.08671256,10.290258360000001,30.030001,-48.299999,81.480003,1770467839.51398
-3.77716392,0.98378604,10.520047800000002,25.76,-66.360001,78.68,1770467839.521964
-2.96332632,0.6941556000000001,10.216055520000001,25.27,-80.010002,74.339996,1770467839.52995
-2.05134948,0.30159864000000003,9.727752960000002,23.1,-89.389999,68.32,1770467839.537977
-1.08431892,-0.11250108000000002,9.14131116,28.139999,-95.620003,62.16,1770467839.545958
-0.09095832000000001,-0.42128064000000004,8.75593512,32.549999,-99.889999,60.34,1770467839.554063
0.7922948400000001,-0.70851744,8.58838032,36.330002,-102.339996,55.720001,1770467839.561961
1.6994844000000002,-0.96703056,8.49981564,44.099998,-104.650002,52.150002,1770467839.569959
2.49896016,-1.0795316400000001,8.42321916,48.790001,-104.440002,47.32,1770467839.577959
3.1452429600000005,-0.84734856,8.44715556,55.580002,-102.690002,43.330002,1770467839.585969
3.86812224,-0.6558573600000001,8.38013364,57.330002,-100.870003,31.15,1770467839.593978
4.385148480000001,-0.45718524,8.358590880000001,58.869999,-94.919998,24.290001,1770467839.601965
4.6915344,-0.6462827999999999,8.38731456,64.330002,-88.339996,16.59,1770467839.609968
4.837546440000001,-0.80665668,8.12401416,63.77,-75.32,6.72,1770467839.618015
5.71601232,-0.21782124000000003,8.08810956,70.769997,-69.089996,8.61,1770467839.62596
5.9601636000000005,-0.04308552,8.179067880000002,77.0,-54.459999,8.26,1770467839.633959
5.9841,0.11968200000000001,8.22933432,78.75,-32.130001,13.3,1770467839.641963
5.6585649600000005,0.8617104000000001,7.75778724,80.989998,-10.36,21.629999,1770467839.650003
5.29951896,2.1806060400000002,7.4920932,83.650002,11.34,38.709999,1770467839.657965
4.15057176,3.60721548,7.164164520000001,85.82,33.529999,48.439999,1770467839.665983
3.26492496,5.38808364,6.881715000000001,81.550003,48.23,56.279999,1770467839.673959
2.4247573200000003,5.553244800000001,6.43171068,72.169998,56.84,66.849998,1770467839.681973
1.4673013200000002,6.278517720000001,5.567606640000001,64.120003,62.509998,76.300003,1770467839.690249
0.71330472,6.654319200000001,5.00749488,45.779999,64.190002,83.720001,1770467839.697963
0.20585304000000001,7.003790640000001,4.66999164,37.52,70.209999,99.260002,1770467839.705966
-0.10532016000000001,6.62559552,4.58621424,20.02,69.440002,101.220001,1770467839.714065
-0.21542760000000002,6.11814384,4.7394072000000005,7.56,72.660004,107.029999,1770467839.721992
-0.08856468,5.627447640000001,5.39047728,2.87,79.940002,106.470001,1770467839.729961
0.052660080000000005,5.10563412,6.558573600000001,-7.21,91.629997,112.629997,1770467839.737964
-0.0119682,4.8686637600000005,7.5279978,-17.85,103.529999,116.620003,1770467839.745995
-0.27287496,4.49525592,8.31311172,-34.860001,110.599998,122.220001,1770467839.754076
-0.7922948400000001,4.2367428,9.035991000000001,-44.52,108.5,129.149994,1770467839.761993
-1.1728836,4.14578448,9.99584064,-49.560001,97.790001,129.5,1770467839.769957
-1.48884408,3.64312008,11.4176628,-52.009998,80.849998,136.570007,1770467839.77796
-2.1447014400000004,2.56837572,12.913687800000002,-45.779999,64.330002,139.929993,1770467839.785989
-2.92981536,1.8790073999999999,13.727525400000001,-37.869999,50.959999,139.369995,1770467839.793983
-3.93035688,1.4696949600000002,13.959708480000002,-30.030001,40.669998,143.289993,1770467839.801965
-4.6747789200000005,2.0345940000000002,13.8472074,-24.57,32.619999,141.610001,1770467839.809988
-5.28755076,2.7718351200000004,13.22725464,-23.799999,21.84,139.160004,1770467839.81796
-5.90750352,3.1476366,12.83230404,-24.08,10.64,128.940002,1770467839.82596
-5.73037416,3.1284874800000004,12.8418786,-21.91,0.42,114.449997,1770467839.833962
-5.1606878400000005,3.2721058800000002,12.717409320000002,-20.09,-9.38,104.93,1770467839.841963
-4.6915344,3.35588328,12.174053040000002,-23.379999,-15.75,101.57,1770467839.849986
-4.1170608,3.2433822000000005,11.17590516,-27.65,-19.389999,100.309998,1770467839.857965
-3.4995016800000003,2.8723680000000003,9.99823428,-34.23,-18.48,98.07,1770467839.865962
-2.98486908,2.2380534,8.82295704,-39.759998,-21.700001,102.690002,1770467839.873959
-2.2404470400000003,1.5175677600000002,8.72003052,-45.779999,-29.26,97.580002,1770467839.881958
-1.06756344,0.45718524,9.9096696,-43.470001,-43.259998,86.940002,1770467839.890024
0.1555866,-0.26569404,10.7953164,-36.049999,-52.639999,76.720001,1770467839.897978
1.35480024,-1.13937264,11.137606920000001,-27.02,-57.889999,72.239998,1770467839.905964
3.07104012,-3.1835412,11.89160352,-19.459999,-60.200001,69.650002,1770467839.914008
3.5976409200000004,-5.00031396,12.573790920000002,-17.57,-60.900002,53.130001,1770467839.922023
4.65084252,-6.278517720000001,12.4948008,-1.33,-46.689999,49.700001,1770467839.929966
4.92132384,-6.96309876,12.59533368,14.63,-28.209999,50.119999,1770467839.937964
5.055367680000001,-7.195281840000001,12.64081284,30.66,-8.82,49.77,1770467839.945967
4.9237174800000005,-7.01097156,12.5307054,39.689999,10.29,52.779999,1770467839.954426
4.68435348,-6.4269234,12.17644668,49.209999,22.75,56.07,1770467839.961997
4.15775268,-5.445531000000001,11.494259280000001,60.34,33.110001,60.48,1770467839.969989
3.4300861200000003,-3.96626148,10.62536796,65.940002,34.650002,66.290001,1770467839.978052
2.6210358,-1.96517844,9.67748652,70.769997,29.190001,65.379997,1770467839.986767
2.06571132,-0.25372584000000004,9.27056772,73.779999,22.889999,65.870003,1770467839.993985
1.52953596,0.9119768400000001,9.13652388,71.400002,17.01,61.810001,1770467840.001972
1.2901719600000001,2.36012904,9.12934296,68.389999,8.89,48.790001,1770467840.010066
1.19442636,2.94896448,9.256205880000001,59.990002,4.13,38.709999,1770467840.017958
1.0292652,3.0997638,9.4668462,57.540001,3.78,25.200001,1770467840.02599
1.9268802000000003,4.480894080000001,9.10540656,63.77,3.85,38.360001,1770467840.033963
1.18006452,4.6747789200000005,9.581740920000001,48.860001,-3.64,33.25,1770467840.041972
1.17767088,4.81600368,9.816317640000001,42.0,-6.02,34.650002,1770467840.049965
1.0891062,4.48328772,9.8977014,33.110001,-6.79,28.49,1770467840.057983
1.08192528,3.5928536400000004,9.907275960000002,26.530001,-5.11,23.52,1770467840.065961
0.86649768,2.6617276800000003,9.7181784,22.889999,-0.49,23.52,1770467840.07396
0.7228792800000001,2.1710314800000003,9.31844052,19.32,3.85,21.07,1770467840.082014
0.5625054,1.5606532800000001,8.904340800000002,23.1,4.9,20.51,1770467840.090139
0.299205,1.3739493600000001,8.39449548,25.9,3.22,18.27,1770467840.097963
0.06941556,1.1489472,8.21497248,29.540001,0.07,15.12,1770467840.105951
0.05026644,1.2207564,8.248483440000001,33.529999,-5.53,10.5,1770467840.113969
0.05744736,1.4696949600000002,8.01390672,35.0,-10.71,12.18,1770467840.121957
0.08377740000000002,1.5391105200000001,7.985183040000001,40.880001,-17.780001,9.73,1770467840.129968
0.28005588000000003,1.48884408,7.93012932,43.119999,-23.24,12.18,1770467840.138016
0.52420716,1.7712936000000001,7.86789468,50.540001,-23.17,15.19,1770467840.145951
0.63670824,2.4798110400000004,7.76975544,57.330002,-22.889999,18.620001,1770467840.153953
0.71569836,3.37263876,7.803266400000001,65.099998,-22.120001,19.110001,1770467840.161989
0.7970821200000001,4.27025376,8.08571592,67.620003,-24.15,21.84,1770467840.169959
0.9335196,4.99792032,8.5931676,64.330002,-25.76,22.190001,1770467840.177931
1.2327246,5.4096264000000005,8.92588356,54.32,-27.02,26.879999,1770467840.186008
1.6420370400000002,5.361753600000001,9.07668288,43.189999,-27.02,25.9,1770467840.193974
2.08486044,5.06494224,8.96657544,30.799999,-24.92,30.030001,1770467840.20196
2.4295446,4.86627012,8.624284920000001,24.57,-21.209999,29.120001,1770467840.209985
2.67130224,4.80164184,8.24369616,15.54,-11.9,35.91,1770467840.217949
2.83406976,4.7633436,7.93970388,10.92,-1.26,41.93,1770467840.226009
2.8675807200000003,4.480894080000001,7.899012000000001,-0.91,9.52,42.0,1770467840.233959
2.88194256,3.769983,8.08332228,-12.53,25.9,49.700001,1770467840.241955
2.54204568,2.8795489200000004,8.667370440000001,-15.54,43.82,56.209999,1770467840.249954
2.10879684,1.4242158,9.699029280000001,-17.01,64.400002,65.029999,1770467840.257953
1.35480024,-0.07899012000000001,10.87670016,-7.49,80.639999,67.199997,1770467840.265955
0.18431028,-0.7922948400000001,11.69532504,-4.13,94.43,76.650002,1770467840.274004
-1.4601204,-0.5864418,12.1237866,-3.99,99.959999,81.480003,1770467840.281945
-3.1213065600000003,-0.02154276,12.276979560000001,-7.56,96.18,86.589996,1770467840.289978
-4.480894080000001,0.7731457199999999,12.320065080000001,-10.36,78.68,94.57,1770467840.297964
-5.660958600000001,1.32607656,12.59294004,-9.8,50.189999,99.75,1770467840.305957
-7.089961680000001,1.5199614000000001,13.06209348,-13.23,17.219999,89.879997,1770467840.3141
-7.42267764,1.5127804800000002,13.19853096,-15.75,-16.52,75.529999,1770467840.321958
-6.484370760000001,1.9508166000000002,13.284702000000001,-13.09,-53.689999,63.419998,1770467840.329961
-4.964409359999999,2.453481,13.24640376,-18.200001,-80.989998,52.849998,1770467840.337957
-3.1213065600000003,2.9274217200000003,12.975922440000002,-21.07,-96.739998,45.639999,1770467840.346034
-1.33804476,3.1165192800000003,12.741345720000002,-28.0,-103.32,34.650002,1770467840.353985
0.21303396,3.17875392,12.367937880000001,-35.84,-101.919998,25.129999,1770467840.361967
1.5726214800000002,2.6138548800000003,12.02086008,-42.419998,-91.419998,16.450001,1770467840.369965
3.2314140000000005,2.71917504,11.130426000000002,-44.73,-85.260002,10.85,1770467840.377996
4.547916000000001,3.03274188,10.77138,-42.209999,-80.57,22.33,1770467840.386071
5.08887864,2.56837572,10.07004348,-45.990002,-71.120003,29.610001,1770467840.394019
5.52452112,2.2189042800000003,9.095832000000001,-47.529999,-58.240002,35.560001,1770467840.401968
5.49819108,2.3433735600000003,7.97560848,-43.119999,-42.700001,38.360001,1770467840.40996
5.421594600000001,2.4893856,6.783575760000001,-39.689999,-29.26,44.939999,1770467840.418024
5.25643344,2.7694414800000002,5.952982680000001,-36.68,-13.58,51.59,1770467840.425974
5.06733588,2.96571996,5.65377768,-32.619999,3.78,53.619999,1770467840.433962
4.9548348,3.06625284,5.47425468,-30.1,25.059999,63.84,1770467840.441955
4.75855632,2.90109168,5.17504968,-23.66,43.959999,68.32,1770467840.449949
4.35403116,2.9561454,4.87584468,-20.58,59.990002,79.870003,1770467840.457943
3.9207823200000003,2.78619696,4.966803,-8.82,69.720001,87.150002,1770467840.465994
3.61918368,2.2619898000000003,5.42398824,-0.56,74.059998,87.919998,1770467840.474006
3.3391278000000004,1.6755480000000003,5.967344520000001,9.66,73.989998,84.559998,1770467840.481967
3.10933836,1.27341648,6.400593360000001,22.889999,72.660004,79.660004,1770467840.49002
3.0758274,0.9766051200000001,6.872140440000001,29.959999,71.190002,68.599998,1770467840.497974
3.28168044,0.49787712,7.247941920000001,35.560001,71.190002,55.09,1770467840.505962
3.60721548,-0.13643748,7.403528520000001,39.689999,71.540001,47.040001,1770467840.513967
3.87290952,-0.6702192000000001,7.58065788,41.790001,73.150002,42.98,1770467840.522013
4.14339084,-1.1585217600000002,8.04741768,49.0,76.089996,38.220001,1770467840.529946
4.289402880000001,-1.63724976,9.196364879999999,50.959999,83.650002,31.92,1770467840.537946
4.51919232,-1.88858196,10.95329664,56.0,97.089996,30.030001,1770467840.54606
4.44738312,-2.19496788,12.569003640000002,62.650002,112.489998,22.540001,1770467840.553958
4.016527920000001,-2.45826828,13.727525400000001,65.309998,126.279999,19.6,1770467840.561973
3.11891292,-2.4893856,14.287637160000001,74.760002,137.970001,18.059999,1770467840.569965
1.8502837200000002,-2.0226258,14.31875448,82.669998,149.589996,18.27,1770467840.577979
0.29202408,-0.89043408,13.978857600000001,87.5,159.179993,19.040001,1770467840.586036
-1.19203272,0.6031972800000001,13.88550564,82.110001,162.75,17.709999,1770467840.594012
-2.87715528,2.5181092800000004,13.74188724,68.949997,167.509995,25.129999,1770467840.601973
-4.15057176,4.51440504,13.83045192,44.240002,161.279999,25.34,1770467840.609986
-5.155900560000001,6.23782584,14.02912404,17.780001,150.639999,32.549999,1770467840.617964
-5.93143992,7.14740904,14.35705272,-7.77,134.399994,37.59,1770467840.626023
-6.546605400000001,7.367623920000001,14.5652994,-30.59,113.82,42.77,1770467840.63396
-6.958311480000001,7.2527292,14.3498718,-46.759998,88.410004,45.639999,1770467840.641955
-7.1091108,6.64953192,13.727525400000001,-57.189999,62.509998,47.110001,1770467840.649955
-6.982247880000001,5.833300680000001,12.59533368,-62.02,36.75,48.23,1770467840.657998
-6.57532908,5.0505804,10.97723304,-60.970001,14.07,44.029999,1770467840.66601
-6.00324912,4.6197252,9.20833308,-55.369999,-8.68,36.330002,1770467840.673966
-5.23489068,4.22716824,7.714701720000001,-48.860001,-27.370001,28.209999,1770467840.681961
-4.38993576,3.9447187200000005,6.53224356,-36.470001,-39.549999,25.129999,1770467840.689999
-3.5928536400000004,3.66466284,5.857237080000001,-27.65,-46.970001,22.82,1770467840.697975
-2.88194256,3.51625716,5.34260448,-16.66,-50.330002,21.280001,1770467840.705961
-2.4463000800000003,3.4468416000000004,4.727439,-12.46,-49.630001,24.92,1770467840.713958
-2.15666964,3.50428896,3.89205864,-5.81,-49.349998,23.1,1770467840.721955
-1.9292738400000002,3.61200276,3.0135927600000003,-1.54,-54.25,29.049999,1770467840.730097
-1.7880490800000002,3.59046,2.3481608400000002,-0.35,-61.25,28.35,1770467840.737952
-1.59895152,3.59046,1.7904427200000002,3.78,-68.459999,30.17,1770467840.745943
-1.3667684400000002,3.5784918,1.4242158,6.16,-77.0,29.469999,1770467840.753975
-1.0891062,3.7005674400000004,1.17527724,7.77,-85.190002,29.33,1770467840.761969
-0.6127718400000001,3.6742374,1.3284702000000002,15.19,-92.260002,26.040001,1770467840.769962
0.07899012000000001,3.26253132,2.16863784,20.370001,-91.419998,25.76,1770467840.77798
0.6869746800000001,2.7335368800000004,3.470778,22.889999,-87.010002,24.92,1770467840.785951
1.16330904,2.39364,5.37850908,18.969999,-80.080002,23.940001,1770467840.794004
1.24948008,2.17581876,7.496880480000001,10.99,-69.650002,26.67,1770467840.80199
0.897615,1.9986894000000002,9.8258922,9.31,-54.529999,22.75,1770467840.810078
0.22500216000000003,1.6037388,12.1955958,4.34,-33.599998,13.86,1770467840.817953
-0.50984532,0.9383068800000001,13.942953000000001,6.23,-13.79,2.31,1770467840.825996
-0.8617104000000001,0.9095832,16.03978164,0.35,-4.55,-11.13,1770467840.833977
-0.87607224,1.5319296,18.67996656,-10.43,-4.83,-15.61,1770467840.842039
-0.14122476,1.20400092,20.18556612,-23.1,-20.23,-12.39,1770467840.849957
-0.05026644,-0.13883112,20.42253648,-34.650002,-42.209999,-2.31,1770467840.857972
0.34707780000000005,-1.3093210800000001,21.13105392,-35.419998,-55.02,3.64,1770467840.865957
1.06995708,-2.44390644,21.57148368,-36.68,-62.439999,6.58,1770467840.87396
1.8024109200000002,-2.31225624,20.65471956,-39.970001,-66.849998,8.4,1770467840.881959
2.45826828,-1.9268802000000003,18.57704004,-41.650002,-71.68,11.2,1770467840.889954
3.0159864,-1.11782988,16.537658760000003,-43.540001,-71.540001,11.62,1770467840.898092
3.50428896,-0.29441772,14.56051212,-40.110001,-66.709999,14.91,1770467840.905964
3.82743036,0.19867212,12.676717440000001,-39.759998,-60.130001,14.07,1770467840.913994
4.20562548,0.67261284,10.737869040000001,-39.970001,-51.799999,12.53,1770467840.921965
4.74898176,1.96996572,8.992905480000001,-28.35,-44.310001,26.25,1770467840.929959
4.57424604,2.7885906000000005,7.599807000000001,-20.860001,-33.810001,34.23,1770467840.937975
4.45695768,3.32237232,6.42452976,-20.09,-20.370001,38.360001,1770467840.945958
4.385148480000001,3.7340784,5.464680120000001,-18.690001,-6.37,40.599998,1770467840.953958
4.19605092,3.7340784,4.385148480000001,-17.57,8.12,46.689999,1770467840.961944
3.88487772,3.4348734000000003,3.3702451200000003,-9.1,20.299999,46.830002,1770467840.970127
3.2481694800000005,2.9154535200000002,2.17342512,0.77,38.5,53.970001,1770467840.981163
2.8867298400000005,2.84603796,1.73778264,8.54,47.950001,52.57,1770467840.986258
2.2955007600000004,2.6856640800000005,1.2063945600000001,17.360001,62.720001,53.619999,1770467840.994001
1.75453812,2.53486476,0.96224328,24.43,77.769997,52.150002,1770467841.002022
1.37873664,2.2141170000000003,0.8497422000000001,29.33,87.849998,47.669998,1770467841.009969
1.17527724,1.98432756,0.83538036,31.43,94.639999,42.07,1770467841.017958
1.02208428,1.8981565200000001,1.03165884,35.209999,99.330002,35.07,1770467841.026005
0.9215514,1.7114526,2.0130512400000002,35.560001,101.639999,33.740002,1770467841.034055
1.15134084,1.3907048400000002,4.16014632,34.860001,101.290001,30.73,1770467841.041957
1.60134516,0.9766051200000001,7.561508760000001,30.66,102.059998,21.84,1770467841.049962
1.75693176,0.96224328,11.534951160000002,21.559999,108.639999,14.35,1770467841.057955
1.7832618,0.7420284,14.780727,15.89,121.940002,5.11,1770467841.065963
1.9627848,-0.67740012,16.875162,5.53,131.179993,-5.18,1770467841.073983
2.37449088,-2.9417835599999997,18.1078866,-3.15,124.879997,3.78,1770467841.081987
1.6204942800000002,-4.71068352,19.37172852,-5.81,110.529999,19.110001,1770467841.089959
-0.13643748,-4.73461992,20.159236080000003,0.35,114.169998,34.790001,1770467841.098022
-1.17527724,-4.88781288,19.99168128,11.2,115.290001,47.459999,1770467841.105965
-3.4588098,-6.00085548,19.27358928,0.42,122.290001,22.75,1770467841.113953
-3.9207823200000003,-5.033824920000001,17.80628796,-2.03,117.18,17.15,1770467841.121953
-4.68195984,-3.67902468,16.97330124,0.77,115.5,6.79,1770467841.129981
-5.38569,-1.92448656,16.36771032,0.56,111.160004,11.55,1770467841.137947
-5.87159892,-0.0119682,15.64004376,-0.35,103.529999,0.84,1770467841.146056
-5.95776996,1.6851225600000002,14.598810360000002,-11.34,89.389999,-7.7,1770467841.154016
-5.79021516,2.99923092,13.22964828,-22.33,73.080002,-7.35,1770467841.162126
-5.4838292399999995,3.5808854400000003,11.654633160000001,-30.309999,57.68,-15.96,1770467841.169982
-5.1223896,3.5760981600000004,9.89291412,-38.360001,38.009998,-17.219999,1770467841.177953
-4.7154708,3.30801048,8.18146152,-34.580002,16.1,-22.82,1770467841.185955
-4.17211452,2.92981536,6.800331240000001,-30.73,-5.46,-32.130001,1770467841.19398
-3.5066826,2.59231212,5.675320440000001,-21.91,-22.889999,-35.07,1770467841.201964
-2.81013336,2.20932972,4.76813088,-8.33,-39.34,-38.639999,1770467841.209972
-2.44390644,2.2978944,3.7915257600000003,2.66,-50.68,-40.32,1770467841.218018
-2.07289224,2.1207650399999998,3.00641184,11.2,-59.43,-45.849998,1770467841.22596
-1.83831552,2.14709508,2.39364,18.41,-66.779999,-51.869999,1770467841.233951
-0.45957888,3.1643920800000003,1.62528156,30.030001,-67.760002,-32.060001,1770467841.241951
-0.24415128000000003,3.62157732,1.40506668,39.130001,-76.860001,-18.129999,1770467841.24995
-0.038298240000000004,4.16972088,1.10825532,41.650002,-82.32,-1.4,1770467841.257948
0.21064032000000002,4.47131952,0.96703056,38.639999,-88.760002,9.31,1770467841.265997
0.49548348,4.643661600000001,0.9359132400000001,37.099998,-91.139999,19.459999,1770467841.273953
0.7611775199999999,4.62929976,1.1130426000000002,35.279999,-84.699997,25.969999,1770467841.281941
0.9598496400000001,4.70589624,1.7306017200000001,33.040001,-71.68,30.030001,1770467841.289955
1.18963908,4.964409359999999,3.0423164400000005,30.24,-46.900002,29.959999,1770467841.298097
1.46251404,5.356966320000001,5.266008000000001,24.85,-15.33,27.65,1770467841.30596
1.6970907600000003,5.83808796,8.41125096,20.23,20.790001,22.959999,1770467841.313959
1.38352392,6.075058320000001,11.697718680000001,10.99,57.540001,16.030001,1770467841.321958
0.44521704,5.7758533199999995,14.1464124,7.91,92.400002,8.47,1770467841.32996
-1.40746032,5.129570520000001,16.62622344,-3.99,122.709999,2.87,1770467841.337957
-4.47371316,3.67902468,18.59379552,-12.67,149.940002,-6.86,1770467841.346035
-5.979312720000001,1.59895152,20.144874240000004,-21.98,158.410004,-12.53,1770467841.353956
-6.93198144,-0.59841,22.440375000000003,-23.1,142.169998,-4.76,1770467841.362001
-8.90673444,-3.49232076,23.7688452,-15.19,119.629997,10.29,1770467841.369955
-10.898242920000001,-6.63517008,23.41458648,-25.76,77.209999,-14.84,1770467841.377969
-10.740262679999999,-7.1928882000000005,21.22919316,-25.549999,20.299999,-14.49,1770467841.386064
-10.007808840000001,-6.991822440000001,18.48129444,-36.68,-39.130001,-19.459999,1770467841.394071
-8.542901160000001,-6.30006048,16.0254198,-45.919998,-87.220001,-15.54,1770467841.401965
-6.3168159600000005,-5.11520868,14.09135868,-51.450001,-122.57,-19.040001,1770467841.410044
-3.88727136,-3.9088141199999997,12.676717440000001,-55.580002,-143.990005,-17.15,1770467841.417983
-1.5582596400000002,-2.6210358,11.357821800000002,-55.09,-156.169998,-13.16,1770467841.426043
0.13643748,-1.32128928,9.8977014,-54.880001,-162.119995,-5.88,1770467841.433981
1.0891062,0.13883112,8.3538036,-53.900002,-158.410004,-0.14,1770467841.441958
1.7497508400000001,0.8114439600000001,6.785969400000001,-53.130001,-152.389999,-4.69,1770467841.449955
2.19496788,1.9029438000000003,4.964409359999999,-49.91,-150.639999,-11.41,1770467841.458025
3.9136014000000006,4.5670651200000005,2.82688884,-23.24,-157.850006,23.17,1770467841.465958
3.1835412,3.76758936,1.8071982,-7.07,-149.100006,39.130001,1770467841.473944
3.0901892400000004,3.7987066800000004,0.5792608800000001,7.0,-134.610001,58.240002,1770467841.481959
3.0255609600000004,3.6479073600000005,-0.1555866,23.1,-119.0,60.200001,1770467841.489972
2.9824754400000004,3.41572428,-0.54096264,36.189999,-96.879997,60.830002,1770467841.497998
2.8603998,3.3391278000000004,-0.5601117600000001,51.869999,-70.0,61.459999,1770467841.505974
2.75747328,3.40614972,-0.27766224,58.380001,-40.110001,53.200001,1770467841.513964
2.72396232,3.4396606800000002,0.32314139999999997,54.669998,-10.36,47.529999,1770467841.521972
2.76704784,3.52822536,1.2805974,48.299999,18.9,39.549999,1770467841.529951
2.8915171200000005,3.6479073600000005,2.64257856,40.810001,49.209999,35.560001,1770467841.537944
3.26971224,3.4851398400000004,4.634087040000001,35.77,77.209999,32.830002,1770467841.545969
3.6909928800000005,2.9417835599999997,7.26709104,28.559999,101.849998,29.540001,1770467841.554001
3.60721548,2.00587032,9.8378604,18.41,124.040001,18.48,1770467841.562121
3.1356684,0.7468156800000001,11.932295400000001,11.13,140.419998,2.1,1770467841.569971
2.3098626,-0.24654492000000003,13.660503480000001,5.25,158.270004,-7.56,1770467841.57796
1.5175677600000002,-1.58698332,15.90095052,8.47,169.610001,-10.78,1770467841.585964
0.69894288,-2.5611948,20.0108304,2.52,172.690002,-9.8,1770467841.593993
-1.38352392,-3.2242330800000003,24.415128,1.68,179.830002,-3.78,1770467841.60201
-2.92502808,-4.658023440000001,26.37551916,10.08,171.149994,9.94,1770467841.609972
-5.158294199999999,-5.6035112400000004,26.11939968,9.31,150.5,31.290001,1770467841.61796
-7.90379928,-6.41734884,23.309266320000003,-19.040001,121.519997,6.72,1770467841.626036
-8.497422,-5.64659676,19.860031080000002,-35.490002,83.720001,4.48,1770467841.634003
-8.736786,-4.50722412,16.552020600000002,-47.880001,46.41,-2.31,1770467841.64196
-8.24369616,-3.5665236,14.096145960000001,-50.75,17.43,-5.88,1770467841.649964
-7.32932568,-2.49177924,12.49958808,-54.32,0.63,-6.09,1770467841.657987
-6.340752360000001,-1.2638419200000002,11.3817582,-52.009998,-10.99,-12.04,1770467841.66651
-5.2253161200000005,-0.30638592000000003,10.316588399999999,-52.779999,-15.54,-17.57,1770467841.673959
-4.44498948,0.67979376,9.12934296,-53.200001,-21.209999,-21.49,1770467841.681959
-3.77237664,1.57501512,7.812840960000001,-46.41,-28.77,-27.440001,1770467841.689967
-3.2242330800000003,2.3098626,6.460434360000001,-43.470001,-35.98,-30.799999,1770467841.697988
-2.73832416,2.52050292,5.19898608,-31.57,-44.52,-31.219999,1770467841.705963
-2.2452343200000002,2.6856640800000005,4.09073076,-20.58,-52.43,-35.209999,1770467841.713967
-1.8359218800000001,2.7718351200000004,3.1955093999999997,-12.11,-60.200001,-35.139999,1770467841.721961
-1.80959184,2.5276838400000003,2.5659820800000004,-1.54,-65.239998,-41.650002,1770467841.730053
-1.6659734400000001,2.85800616,1.90773108,6.3,-68.32,-49.77,1770467841.737958
-0.6702192000000001,4.42344672,1.00054152,23.52,-67.760002,-33.25,1770467841.746008
-0.51223896,4.99792032,0.8880404399999999,34.790001,-76.230003,-11.97,1770467841.753972
-0.22260852,5.567606640000001,0.8497422000000001,36.119999,-83.510002,1.75,1770467841.76197
0.18909756000000003,5.92186536,0.9598496400000001,39.34,-89.110001,12.88,1770467841.770109
0.61755912,6.156442080000001,1.1848518000000001,39.759998,-88.199997,24.99,1770467841.777958
1.11782988,6.364688760000001,1.43857764,49.419998,-82.669998,34.650002,1770467841.786002
1.5821960400000001,6.2474004,1.9986894000000002,56.0,-69.300003,43.75,1770467841.793964
1.68272892,6.072664680000001,2.9944436400000005,61.389999,-45.080002,50.470001,1770467841.801974
1.6994844000000002,5.99846184,4.51440504,61.529999,-15.82,49.419998,1770467841.81003
1.6875162000000001,6.1444738800000005,6.52506264,51.310001,18.41,44.73,1770467841.817972
1.42900308,6.268943160000001,8.91391536,41.650002,55.16,33.880001,1770467841.825981
0.42606792,5.9122908,10.79292276,34.23,88.199997,30.309999,1770467841.833953
-1.32607656,4.950047520000001,12.6743238,31.08,115.43,16.030001,1770467841.841956
-3.72929112,4.0261024800000005,15.553872720000001,28.42,135.869995,5.81,1770467841.85005
-6.3503269200000005,2.5372584,19.089279,12.81,146.929993,-11.69,1770467841.857983
-6.9870351600000005,0.81623124,22.043030760000004,-4.48,130.759995,-8.19,1770467841.865943
-10.079618040000001,-2.6689086000000004,25.2648702,-21.559999,101.849998,2.8,1770467841.873969
-12.597727320000002,-8.382527280000001,26.093069640000003,-38.990002,73.849998,-11.27,1770467841.881992
-12.6144828,-10.505685960000001,24.2236368,-37.240002,22.190001,-6.23,1770467841.889971
-12.05676468,-10.84797648,21.475738080000003,-44.310001,-41.790001,-15.96,1770467841.89826
-10.522441440000001,-9.10540656,18.53156088,-49.84,-94.709999,-13.44,1770467841.906006
-8.095290480000001,-7.061238,16.4203704,-54.740002,-136.990005,-15.82,1770467841.913968
-5.08409136,-5.043399480000001,14.515032960000001,-61.669998,-166.529999,-19.67,1770467841.921983
-2.2835325600000003,-3.22662672,12.39187428,-64.190002,-186.619995,-9.8,1770467841.929961
0.0047872800000000005,-1.7880490800000002,10.36685484,-59.360001,-196.419998,-3.71,1770467841.937958
1.47687588,-0.36622692,8.437581,-45.150002,-197.75,9.59,1770467841.946024
1.8981565200000001,0.07659648000000001,7.066025280000001,-34.580002,-187.320007,13.51,1770467841.95399
2.9752945200000003,1.94363568,5.1702623999999995,-21.559999,-182.839996,5.32,1770467841.961966
5.39526456,4.5886078800000005,3.2792868000000004,2.66,-182.210007,6.37,1770467841.97003
4.1888700000000005,4.03567704,2.7407178,31.57,-165.759995,33.950001,1770467841.978442
4.1673272400000005,4.01174064,1.9388484000000001,48.720001,-144.059998,40.599998,1770467841.986155
3.9854106000000002,4.31573292,0.8832531600000001,57.259998,-120.120003,45.779999,1770467841.994115
3.7268974800000003,4.73222628,-0.06702192000000001,61.880001,-91.349998,47.110001,1770467842.00203
3.3439150800000004,5.0098885200000005,-0.78272028,65.519997,-58.450001,46.900002,1770467842.009988
2.92981536,5.11520868,-1.18963908,58.66,-23.870001,46.689999,1770467842.018012
2.77901604,4.926111120000001,-1.3643748000000002,51.099998,5.6,44.52,1770467842.025958
2.7646542000000003,4.61254428,-1.2063945600000001,42.209999,33.669998,37.450001,1770467842.033938
2.79098424,4.397116680000001,-0.43324884,28.91,57.400002,32.060001,1770467842.041964
3.04710372,4.12184808,1.38113028,23.870001,77.0,27.16,1770467842.049957
3.74125932,3.5018953200000005,4.44259584,17.08,91.419998,25.549999,1770467842.058005
4.33727568,2.40082092,8.2700262,14.56,104.650002,18.27,1770467842.066066
4.19844456,1.11543624,12.40623612,10.99,124.599998,10.43,1770467842.073968
3.71732292,-0.7468156800000001,15.6903102,9.52,152.949997,4.76,1770467842.081962
3.9973788000000003,-3.3630642,17.57410488,8.12,156.380005,9.38,1770467842.089955
3.30561684,-5.39526456,20.085033239999998,1.54,138.949997,24.780001,1770467842.097963
0.6079845600000001,-5.1702623999999995,22.380534,14.0,132.160004,43.540001,1770467842.106077
-1.39549212,-5.94580176,24.02257104,23.66,126.839996,52.360001,1770467842.113966
-4.47850044,-7.76975544,24.25475412,8.33,138.179993,25.549999,1770467842.121958
-5.53648932,-7.0851744000000005,21.995157960000004,11.41,130.830002,24.290001,1770467842.129955
-6.85538496,-5.50297836,19.4363568,8.68,120.470001,11.2,1770467842.137951
-7.76257452,-3.6718437600000002,17.00441856,11.41,105.980003,6.93,1770467842.145956
-7.920554760000001,-1.6204942800000002,14.86929168,10.22,89.110001,-4.06,1770467842.154034
-7.370017560000001,0.24654492000000003,13.50252324,0.56,66.080002,-7.14,1770467842.161988
-6.498732600000001,1.75214448,12.45650256,-8.19,41.439999,-10.5,1770467842.169983
-5.5700002799999995,2.692845,11.31952356,-20.299999,23.24,-13.3,1770467842.177955
-4.8231846,3.1260938400000002,10.084405320000002,-26.459999,4.69,-12.95,1770467842.185994
-4.02370884,3.27689316,8.92109628,-30.309999,-13.58,-16.870001,1770467842.19404
-3.3391278000000004,2.9369962800000002,7.72906356,-31.57,-29.68,-16.66,1770467842.20198
-2.99923092,3.1691793600000002,6.32160324,-20.440001,-46.34,-21.35,1770467842.209957
-2.5755566400000003,2.73832416,5.17983696,-12.46,-61.32,-28.98,1770467842.217958
-2.25241524,2.42236368,4.08594348,1.33,-74.480003,-34.299999,1770467842.226035
-1.03165884,3.27689316,2.7598669200000003,20.440001,-86.449997,-22.049999,1770467842.23398
-0.7348474800000001,3.81306852,2.10400956,31.43,-100.239998,-6.23,1770467842.241955
-0.57207996,4.07636892,1.53432324,39.759998,-110.459999,-0.7,1770467842.249953
-0.3111732,4.50243684,0.9215514,38.639999,-114.660004,6.79,1770467842.257981
0.14122476,5.206167,0.34468416,37.310001,-116.410004,13.86,1770467842.265959
0.7611775199999999,5.92665264,0.0478728,39.689999,-112.839996,19.040001,1770467842.274022
1.3404384000000003,6.31202868,0.11489472,43.75,-105.419998,26.879999,1770467842.281971
1.8502837200000002,6.73570296,0.40452516000000005,45.990002,-92.889999,29.82,1770467842.289956
2.33858628,7.2168246,0.9407005200000002,44.240002,-73.43,33.529999,1770467842.297951
2.9944436400000005,7.595019720000001,2.2260852000000004,35.98,-46.900002,32.41,1770467842.306099
3.5425872000000003,7.4322522,4.25828556,23.799999,-14.42,26.110001,1770467842.313983
3.87051588,6.9224068800000005,6.881715000000001,1.68,24.780001,28.700001,1770467842.321976
3.5545554,5.876386200000001,9.44051616,-20.09,62.509998,21.84,1770467842.329996
2.79816516,4.0452516,11.767134239999999,-45.990002,100.940002,13.02,1770467842.338038
1.6444306800000001,1.77368724,14.316360840000002,-53.689999,135.100006,3.08,1770467842.345968
-0.24175764,0.0957456,18.32810148,-53.900002,167.929993,-10.36,1770467842.353962
-2.06331768,-1.4577267600000001,23.21112708,-51.73,197.330002,-12.04,1770467842.361997
-3.8417922000000004,-4.21998732,27.3593052,-45.009998,206.639999,-12.04,1770467842.369961
-7.176132720000001,-6.94873692,28.316761200000002,-22.82,210.070007,6.23,1770467842.377998
-10.275896520000002,-9.45248436,26.569404000000002,-16.450001,169.539993,-12.6,1770467842.38602
-11.530163880000002,-8.02826856,23.089051440000002,-25.41,90.93,-14.28,1770467842.393948
-11.487078360000002,-6.02239824,18.87624504,-44.799999,9.87,-18.549999,1770467842.402002
-9.81153036,-4.373180280000001,15.379137000000002,-51.099998,-64.68,-14.84,1770467842.410051
-7.121079,-2.6234294400000002,13.136296320000001,-54.529999,-120.75,-14.98,1770467842.418383
-4.32770112,-0.98378604,11.470322880000001,-53.200001,-153.720001,-12.81,1770467842.425972
-1.9747530000000002,0.46197252000000005,9.7660512,-47.529999,-177.309998,-12.53,1770467842.433963
-0.14122476,1.5606532800000001,8.322686280000001,-39.34,-189.630005,-4.27,1770467842.441963
0.47394072000000004,1.26623556,7.152196320000001,-32.200001,-187.529999,-4.76,1770467842.450032
2.00587032,1.7904427200000002,5.64180948,-27.58,-181.720001,-16.24,1770467842.457983
3.3870006000000004,3.5258317200000002,3.72450384,7.98,-180.320007,24.99,1770467842.465963
3.8776968000000003,2.9561454,2.73114324,27.09,-161.839996,41.299999,1770467842.473961
3.8034939600000004,2.73114324,1.55347236,40.459999,-136.779999,53.830002,1770467842.482255
3.7268974800000003,2.67130224,0.6319209600000001,51.099998,-107.449997,55.509998,1770467842.489963
3.60960912,2.72396232,0.11728836000000001,55.650002,-77.419998,57.540001,1770467842.498016
3.4348734000000003,2.6784831600000003,-0.13404384000000003,57.049999,-44.099998,53.759998,1770467842.505981
3.25774404,2.6210358,-0.28244952,54.669998,-10.92,45.43,1770467842.513967
3.1332747600000004,2.61624852,-0.37580148,50.400002,21.0,42.700001,1770467842.521969
3.0183800400000003,2.8316761200000005,-0.04308552,50.189999,53.41,36.119999,1770467842.52997
2.9944436400000005,3.02077368,0.9766051200000001,43.889999,80.150002,32.48,1770467842.537957
3.1883284800000005,3.26971224,2.8843362000000003,37.310001,104.370003,30.940001,1770467842.546062
3.7484402400000003,3.42051156,6.0200046,28.139999,123.620003,22.75,1770467842.553958
4.12663536,3.64312008,9.84264768,13.02,141.610001,13.51,1770467842.561974
3.9566869200000006,2.5276838400000003,13.29188292,3.08,167.160004,2.31,1770467842.569954
3.2936486400000002,0.56489904,15.331264200000001,-6.37,190.820007,-3.15,1770467842.577975
2.69523864,-1.6755480000000003,16.6717026,-10.08,198.380005,-0.91,1770467842.586014
1.8574646400000001,-3.04710372,18.85470228,-13.23,187.179993,11.69,1770467842.593972
-0.54096264,-3.8896650000000004,22.11244632,-18.41,180.740005,24.290001,1770467842.601982
-2.36252268,-4.65084252,23.35474548,-15.75,169.190002,35.700001,1770467842.60996
-5.2253161200000005,-5.3234553600000005,23.495970240000002,-13.79,154.490005,47.32,1770467842.617969
-7.4681568,-6.71894748,21.55233456,-26.110001,134.889999,19.74,1770467842.625997
-8.5692312,-6.01282368,18.92411784,-28.559999,109.199997,11.9,1770467842.633975
-9.275355000000001,-4.29419016,16.417976760000002,-31.43,83.510002,1.05,1770467842.641963
-9.533868120000001,-2.5803439200000002,14.5293948,-28.629999,59.290001,-1.61,1770467842.649964
-9.11737476,-0.69176196,13.10996628,-38.220001,38.779999,-15.33,1770467842.657963
-8.25327072,1.15134084,11.922720840000002,-41.790001,18.83,-23.799999,1770467842.666007
-7.164164520000001,2.2978944,10.61818704,-46.34,1.19,-33.529999,1770467842.673986
-5.95776996,2.77422876,9.095832000000001,-50.889999,-18.129999,-36.189999,1770467842.682059
-4.93329204,3.0135927600000003,7.64049888,-42.77,-39.130001,-40.110001,1770467842.689949
-3.9112077600000004,2.9752945200000003,6.35750784,-34.299999,-58.59,-44.59,1770467842.697946
-3.13088112,2.7766224000000004,5.21095428,-16.1,-74.620003,-45.360001,1770467842.705981
-2.5588011600000002,2.3649163200000003,4.11945444,-1.33,-87.080002,-55.580002,1770467842.713968
-1.4146412400000001,3.41333064,2.80534608,17.639999,-92.75,-43.470001,1770467842.721988
-0.86410404,4.26546648,2.154276,44.450001,-100.309998,-32.689999,1770467842.729965
-0.46197252000000005,4.50483048,2.35294812,58.939999,-104.089996,-18.34,1770467842.738004
-0.15319296000000002,5.0027076,2.21172336,66.290001,-106.75,-3.08,1770467842.74598
0.20106576,5.4311691600000005,1.60852608,67.410004,-110.32,9.38,1770467842.754343
0.6821874000000001,5.69446956,1.03644612,67.760002,-116.550003,19.25,1770467842.761967
1.0172970000000001,5.95776996,0.7180920000000001,74.550003,-120.889999,25.34,1770467842.769957
1.16570268,6.039153720000001,0.6127718400000001,73.919998,-117.32,35.98,1770467842.77796
1.31889564,6.01043004,0.6319209600000001,70.349998,-104.019997,40.669998,1770467842.786009
1.44097128,5.9170780800000005,0.95506236,55.509998,-88.410004,42.07,1770467842.794044
1.6970907600000003,5.70643776,2.3098626,33.740002,-63.77,34.650002,1770467842.80227
2.0681049600000003,5.364147239999999,4.84472736,13.86,-31.780001,20.860001,1770467842.809961
2.25959616,4.66041708,8.018694,-3.92,12.32,8.05,1770467842.817966
1.75214448,3.30801048,11.04904224,-16.309999,57.470001,-5.74,1770467842.825951
0.32553504,1.38352392,13.91422932,-26.530001,98.839996,-19.459999,1770467842.83408
-1.4457585600000002,0.02872368,17.42330556,-31.57,133.070007,-26.040001,1770467842.841961
-3.42529884,-1.1992136400000002,22.44755592,-27.51,152.179993,-32.619999,1770467842.849961
-5.7926088,-3.6718437600000002,27.1319094,-28.42,157.360001,-27.09,1770467842.857958
-9.095832000000001,-7.3365066,28.3766022,-25.129999,149.729996,-31.15,1770467842.865963
-10.16339544,-8.851680720000001,25.66939536,-17.99,107.589996,-31.709999,1770467842.87407
-10.57749516,-8.90673444,23.11298784,-18.76,42.0,-31.360001,1770467842.881961
-10.17297,-7.0851744000000005,20.372270040000004,-25.9,-30.52,-29.120001,1770467842.889952
-8.51896476,-5.29473168,17.531019360000002,-38.360001,-89.669998,-18.059999,1770467842.897941
-5.8739925600000005,-3.65748192,15.37195608,-48.369999,-131.389999,-15.96,1770467842.905969
-3.19072212,-2.22847884,13.29906384,-56.0,-162.330002,-9.87,1770467842.913967
-0.9407005200000002,-0.96703056,10.7833482,-62.23,-180.039993,-4.2,1770467842.922007
0.7396347600000001,0.23457672000000002,8.5093902,-57.68,-191.869995,1.61,1770467842.92997
1.3165020000000003,0.69894288,6.8577786000000005,-55.580002,-187.529999,4.69,1770467842.938002
2.4678428400000003,1.53432324,5.3761154399999995,-47.110001,-182.419998,-3.99,1770467842.946028
3.35827692,1.49841864,4.16014632,-37.66,-175.839996,-15.26,1770467842.953965
4.25589192,2.8364634000000004,2.64018492,-8.19,-157.850006,26.110001,1770467842.96196
4.222380960000001,2.9896563600000006,1.36916208,13.44,-135.800003,39.34,1770467842.970168
4.2319555200000005,2.98486908,0.23218308000000001,19.6,-111.300003,47.810001,1770467842.978365
4.18408272,3.1284874800000004,-0.5289944400000001,30.450001,-86.800003,50.400002,1770467842.986168
3.9447187200000005,3.2792868000000004,-1.01250972,33.32,-57.540001,51.59,1770467842.993975
3.61918368,3.32955324,-1.13458536,38.220001,-23.870001,49.91,1770467843.002098
3.46599072,3.20269032,-0.897615,47.18,10.78,43.610001,1770467843.009973
3.32476596,3.0638592,-0.07659648000000001,49.0,43.75,40.810001,1770467843.017966
3.3439150800000004,3.0782210400000003,1.11543624,48.509998,70.489998,33.950001,1770467843.025962
3.37981968,3.0183800400000003,2.84125068,42.0,96.110001,29.82,1770467843.033973
3.61200276,2.86997436,5.22292248,33.32,116.620003,24.08,1770467843.041973
3.9255696,2.69763228,8.03544948,26.32,133.490005,16.799999,1770467843.050122
3.89205864,2.08725408,10.735475400000002,20.65,151.410004,0.07,1770467843.057951
3.54019356,0.89282772,12.70304748,20.299999,171.850006,-9.17,1770467843.065957
2.7838033200000005,-0.7396347600000001,13.770610920000001,23.52,187.25,-19.459999,1770467843.073957
2.3481608400000002,-2.30268168,14.94110088,25.969999,191.869995,-12.6,1770467843.081945
1.6420370400000002,-3.92796324,17.832618,28.91,178.919998,3.22,1770467843.089955
-0.47633436000000007,-4.61015064,21.482919000000003,27.440001,173.809998,16.450001,1770467843.097943
-1.8526773600000002,-5.086485,23.85501624,30.799999,162.050003,34.439999,1770467843.10608
-7.097142600000001,-7.59023244,25.08295356,16.1,161.070007,19.809999,1770467843.11395
-6.934375080000001,-6.22825128,22.19143644,2.03,143.5,5.81,1770467843.121959
-8.10965232,-4.87345104,19.838488320000003,-8.75,121.519997,0.21,1770467843.129954
-8.679338640000001,-3.1691793600000002,17.38022004,-18.690001,99.050003,-9.03,1770467843.137953
-8.80141428,-1.6037388,15.32887056,-26.459999,76.790001,-10.15,1770467843.145952
-8.31550536,-0.09813924000000002,13.82805828,-37.869999,54.669998,-20.370001,1770467843.153984
-7.597413360000001,1.2590546400000002,12.39187428,-49.419998,35.560001,-22.26,1770467843.161958
-6.75724572,2.1159777600000003,10.80010368,-56.419998,16.309999,-27.09,1770467843.170195
-5.83808796,2.4798110400000004,9.095832000000001,-58.450001,-0.84,-32.689999,1770467843.177952
-5.06494224,2.70720684,7.61416884,-53.970001,-16.59,-38.57,1770467843.185961
-4.30615836,2.80295244,6.4269234,-46.41,-32.27,-42.84,1770467843.194045
-3.5425872000000003,2.71199412,5.32824264,-35.630001,-45.709999,-46.619999,1770467843.202025
-2.98486908,2.88194256,4.4641386,-23.799999,-56.77,-53.689999,1770467843.209954
-2.60428032,2.65215312,3.6838119600000003,-11.9,-65.099998,-61.110001,1770467843.217949
-1.29974652,3.46838436,2.5109283600000003,0.7,-68.459999,-54.950001,1770467843.225948
-0.46197252000000005,4.98116484,1.8909756,18.34,-81.900002,-38.220001,1770467843.233965
-0.8114439600000001,5.39526456,1.6875162000000001,26.389999,-91.139999,-10.71,1770467843.241955
-0.71569836,6.04154736,1.21357548,29.26,-101.919998,-1.82,1770467843.249951
-0.30877956,6.388625160000001,0.81623124,31.85,-111.650002,14.42,1770467843.257949
0.0359046,6.340752360000001,0.7539966,34.299999,-116.760002,17.219999,1770467843.26595
0.6414955200000001,6.276124080000001,0.7731457199999999,35.560001,-118.510002,30.17,1770467843.274066
1.00293516,5.8739925600000005,1.13219172,36.119999,-113.889999,39.27,1770467843.28194
1.3524066000000001,5.38090272,2.00587032,30.870001,-94.220001,39.130001,1770467843.28995
1.8239536800000002,4.81361004,3.60960912,21.209999,-63.91,35.700001,1770467843.297932
2.3433735600000003,4.1553590400000004,5.842875240000001,8.75,-22.75,21.280001,1770467843.305972
2.6784831600000003,3.2936486400000002,8.2819944,-1.33,24.43,11.55,1770467843.313959
2.42715096,1.8790073999999999,10.15860816,-8.89,73.779999,0.14,1770467843.32197
1.26623556,0.26090676,11.6570268,-5.25,119.139999,-5.88,1770467843.330096
-0.47872800000000004,-0.5146326,14.11768872,1.68,156.169998,-15.54,1770467843.337951
-3.05907192,-0.9119768400000001,18.42863436,16.309999,184.589996,-19.459999,1770467843.345959
-6.56096724,-3.0375291600000005,22.96218852,19.459999,198.380005,-14.49,1770467843.353959
-10.694783520000001,-6.556179960000001,27.01462104,17.01,189.910004,-11.9,1770467843.361985
-11.726442360000002,-7.08038712,25.11646452,19.67,149.520004,-14.63,1770467843.369978
-12.865815000000001,-7.52081688,22.227341040000002,8.19,85.050003,-9.87,1770467843.377968
-13.01661432,-7.3245384,20.0587032,-7.56,5.25,-10.15,1770467843.38596
-11.72404872,-6.400593360000001,17.65070136,-23.24,-65.309998,-15.4,1770467843.393969
-9.23466312,-4.959622080000001,15.67355472,-42.98,-121.449997,-12.81,1770467843.402055
-6.40538064,-3.40614972,14.1105078,-56.0,-162.399994,-23.379999,1770467843.409985
-3.5784918,-2.20693608,12.60969552,-70.769997,-186.619995,-22.120001,1770467843.417961
-1.15373448,-1.0723507200000002,10.90781748,-78.120003,-202.649994,-20.93,1770467843.42603
0.72527292,0.00718092,9.170034840000001,-80.010002,-209.649994,-16.309999,1770467843.433967
1.31410836,0.55771812,7.76018088,-80.010002,-202.160004,-11.06,1770467843.442078
3.04710372,1.10825532,6.558573600000001,-74.550003,-194.320007,-18.690001,1770467843.449994
3.9255696,1.0053288,5.6585649600000005,-63.0,-185.850006,-18.41,1770467843.457952
5.18462424,2.41997004,4.2008382,-31.57,-168.979996,21.280001,1770467843.465955
5.08169772,2.79816516,3.00162456,-13.93,-145.320007,26.25,1770467843.473959
4.87345104,3.2481694800000005,1.92209292,-4.76,-118.230003,38.220001,1770467843.481983
4.5000432,3.64312008,1.0053288,1.12,-91.699997,41.580002,1770467843.489991
4.10030532,3.78434484,0.3710142,1.12,-59.43,42.209999,1770467843.49795
3.7939194,3.3630642,0.06702192000000001,-0.28,-24.780001,45.849998,1770467843.50597
3.56173632,2.41039548,-0.00718092,0.7,10.08,35.419998,1770467843.513947
3.4468416000000004,1.6731543600000003,0.08617104,6.37,46.34,35.91,1770467843.521963
3.3391278000000004,1.2255436800000001,0.5481435600000001,17.43,82.739998,24.92,1770467843.529958
3.26013768,1.14655356,1.8478900800000002,29.68,116.410004,23.309999,1770467843.537966
3.43247976,1.3428320400000002,4.1409972,40.32,143.710007,13.3,1770467843.546011
3.8585476800000005,1.4481522,7.33171932,42.700001,166.600006,12.67,1770467843.55402
3.8776968000000003,1.3308638400000001,10.41712128,39.970001,188.509995,2.31,1770467843.561957
3.36545784,0.67500648,12.02564736,45.849998,211.259995,-5.32,1770467843.569958
2.30746896,-0.52420716,12.861027720000001,51.099998,228.199997,0.21,1770467843.577956
0.7611775199999999,-1.65639888,13.86635652,64.330002,242.619995,3.36,1770467843.586005
-0.47633436000000007,-2.0465622,15.857865000000002,71.400002,238.910004,17.709999,1770467843.594043
-2.3218308000000003,-2.7048132000000003,19.4363568,70.629997,214.130005,29.959999,1770467843.602215
-5.07691044,-2.97290088,22.007126160000002,59.220001,177.940002,50.68,1770467843.609969
-7.6572543600000005,-3.9423250800000003,22.27760748,36.189999,141.330002,66.220001,1770467843.617968
-10.44105768,-5.75191692,21.138234840000003,11.2,108.220001,26.459999,1770467843.626011
-10.97005212,-6.185165759999999,18.73262664,1.54,72.730003,28.77,1770467843.634102
-11.02510584,-5.62984128,16.49936052,-5.88,43.540001,13.09,1770467843.641968
-10.63015524,-4.667598,14.938707240000001,-10.71,22.68,-2.8,1770467843.649967
-9.780413040000001,-3.1883284800000005,13.73709996,-15.05,7.77,-11.13,1770467843.657951
-8.676945,-1.5415041600000001,12.64081284,-23.799999,0.07,-24.639999,1770467843.666001
-7.4418267600000005,0.052660080000000005,11.52777024,-27.65,-7.0,-35.07,1770467843.673973
-6.3287841600000005,1.35958752,10.15860816,-31.780001,-15.89,-38.779999,1770467843.681984
-5.356966320000001,2.15188236,8.75354148,-29.889999,-26.110001,-43.82,1770467843.690075
-4.57424604,2.7335368800000004,7.65486072,-22.540001,-35.91,-43.470001,1770467843.697937
-3.7628020800000006,3.0351355200000003,6.910438680000001,-12.46,-48.23,-47.599998,1770467843.705971
-3.0973701600000005,3.09497652,6.2737304400000005,-1.89,-59.43,-44.799999,1770467843.713962
-2.78619696,2.96571996,5.63462856,4.97,-68.389999,-51.240002,1770467843.722062
-2.94896448,3.32476596,4.3827548400000005,13.3,-73.080002,-49.209999,1770467843.730005
-1.40267304,4.52637324,3.470778,23.17,-85.540001,-29.75,1770467843.737958
-1.06995708,5.17983696,2.9800818000000002,34.860001,-96.879997,-16.450001,1770467843.746025
-0.97181784,5.565213000000001,2.55162024,41.650002,-105.419998,3.01,1770467843.75396
-0.7803266400000001,5.780640600000001,2.0106576,45.779999,-109.620003,17.709999,1770467843.761961
-0.55293084,6.043941,1.35480024,54.880001,-116.620003,33.18,1770467843.769957
-0.21064032000000002,6.072664680000001,0.99096696,63.77,-125.440002,45.990002,1770467843.777984
0.06223464,5.579574840000001,1.14415992,70.769997,-127.959999,50.330002,1770467843.785948
0.42367428,5.057761320000001,1.4098539600000002,72.449997,-126.559998,47.740002,1770467843.794059
0.63670824,4.74419448,1.7688999600000002,63.91,-117.18,42.279999,1770467843.801968
0.70133652,4.784886360000001,2.31464988,47.740002,-100.449997,38.5,1770467843.809981
0.74442204,5.146326,3.22183944,18.200001,-76.650002,29.469999,1770467843.817961
0.8545294800000001,5.12717688,4.796854560000001,-11.34,-49.209999,17.57,1770467843.826056
0.8712849600000001,4.49525592,6.9870351600000005,-35.209999,-15.75,9.87,1770467843.833963
0.4547916,2.8795489200000004,9.605677320000002,-41.509998,25.969999,2.45,1770467843.841963
-0.4667598,0.7587838800000001,12.633631920000001,-29.540001,63.77,-7.56,1770467843.849967
-1.63724976,-0.6534637200000001,16.72196904,-15.12,93.169998,-3.29,1770467843.857995
-3.2984359199999997,-1.7593254,21.93052968,-7.0,102.269997,-8.47,1770467843.866001
-5.34260448,-3.4827462000000002,26.562223080000003,-11.69,98.419998,-3.08,1770467843.873961
-8.2101852,-6.7285220400000005,27.6944148,-31.57,86.940002,-9.45,1770467843.881962
-9.52908084,-8.86604256,24.922579680000002,-30.870001,56.419998,-19.6,1770467843.889959
-9.71339112,-10.01259612,22.715643600000003,-30.309999,12.46,-19.25,1770467843.897936
-8.684125920000001,-8.82774432,19.931840280000003,-30.1,-34.860001,-23.030001,1770467843.906102
-6.675861960000001,-6.96070512,17.60282856,-33.810001,-75.809998,-25.41,1770467843.913955
-4.03567704,-5.060154960000001,15.707065680000001,-42.139999,-109.970001,-19.879999,1770467843.922007
-1.6037388,-3.1859348400000003,13.775398200000001,-40.040001,-131.389999,-12.25,1770467843.930062
0.48351528,-1.69469712,11.99453004,-36.119999,-143.779999,-0.14,1770467843.937956
1.71863352,-0.32074776000000005,10.22323644,-28.42,-147.070007,8.96,1770467843.945973
2.19975516,0.20824668000000002,8.562050280000001,-25.200001,-136.710007,15.12,1770467843.954101
3.4492352400000006,1.63485612,6.54181812,-18.549999,-136.429993,5.95,1770467843.961942
5.47904196,5.531702040000001,4.46174496,3.57,-135.869995,25.129999,1770467843.97013
4.12184808,4.47131952,4.31333928,14.07,-123.339996,38.919998,1770467843.978693
3.9495060000000004,4.74419448,3.5784918,12.88,-108.639999,46.970001,1770467843.986334
3.7747702800000003,4.8471210000000005,2.64736584,11.41,-88.129997,46.200001,1770467843.994013
3.6143964,4.6556298,1.83831552,3.78,-62.580002,47.669998,1770467844.002079
3.4013624399999998,4.25589192,1.1585217600000002,0.56,-37.240002,49.700001,1770467844.010012
3.0854019600000004,3.67902468,0.52181352,-7.35,-7.77,45.639999,1770467844.018035
2.67130224,3.0159864,-0.07420284,-11.2,20.65,40.459999,1770467844.025947
2.37209724,2.3768845200000004,-0.6319209600000001,-9.87,45.779999,35.139999,1770467844.033959
2.10400956,1.9292738400000002,-0.67500648,-7.35,65.589996,27.02,1770467844.041967
1.94602932,1.49841864,-0.009574560000000001,-1.26,84.699997,20.02,1770467844.049968
1.94842296,1.27341648,1.5726214800000002,5.74,102.970001,11.62,1770467844.05811
2.2739580000000004,1.04602068,4.0476452400000005,8.47,115.709999,4.34,1770467844.065971
2.64018492,0.87607224,7.281452880000001,10.92,126.629997,-7.14,1770467844.073961
2.7838033200000005,0.40452516000000005,10.515260520000002,11.55,135.169998,-12.25,1770467844.081963
2.37927816,-0.49308984000000006,12.89214504,18.200001,149.729996,-20.719999,1770467844.090046
1.74017628,-1.5582596400000002,14.570086680000001,28.0,167.929993,-16.17,1770467844.097941
1.17048996,-2.2835325600000003,16.08765444,41.02,178.919998,-8.12,1770467844.10597
0.6008036400000001,-2.86279344,18.2275686,51.450001,174.089996,4.76,1770467844.113993
-0.8018694,-4.05482616,21.46616352,47.740002,155.259995,24.5,1770467844.121952
-2.46066192,-4.52637324,23.01724224,45.779999,130.479996,39.689999,1770467844.12995
-4.62929976,-4.040464320000001,22.18425552,40.32,101.5,58.66,1770467844.137955
-7.14740904,-5.78782152,20.48716476,14.7,91.489998,31.99,1770467844.145954
-7.3987412400000006,-5.469467400000001,18.39751704,10.01,78.610001,16.309999,1770467844.153998
-7.865501040000001,-4.17450816,16.60468068,5.67,68.879997,17.709999,1770467844.161989
-8.0067258,-2.4726301200000003,15.35998788,4.13,60.27,8.47,1770467844.169967
-7.803266400000001,-0.28244952,14.507852040000001,-6.79,52.290001,3.99,1770467844.178003
-7.27427196,1.56544056,13.763430000000001,-17.92,45.43,-3.43,1770467844.185957
-6.60884004,3.0183800400000003,12.549854520000002,-29.26,36.330002,-12.18,1770467844.193945
-6.0367600800000005,4.009347,11.003563080000001,-35.419998,28.35,-10.85,1770467844.201959
-5.54845752,4.243923720000001,9.54104904,-30.450001,14.63,-19.32,1770467844.209999
-5.48622288,4.851908280000001,8.198217,-22.889999,2.73,-27.440001,1770467844.218057
-4.61733156,4.35881844,7.5040614,-3.57,-11.69,-37.380001,1770467844.225954
-3.1835412,5.4957974400000005,6.53942448,19.18,-26.67,-19.110001,1770467844.23396
-3.16199844,5.08169772,6.10138836,29.68,-42.0,-9.17,1770467844.241952
-2.6736958800000004,4.7154708,5.18941152,37.099998,-58.310001,-11.9,1770467844.249948
-2.12794596,4.1338162800000005,4.17211452,33.32,-77.419998,-8.89,1770467844.257945
-1.555866,3.6598755600000006,3.1859348400000003,24.43,-95.129997,-12.04,1770467844.265942
-0.9383068800000001,3.3702451200000003,2.33619264,13.02,-111.440002,-10.01,1770467844.273957
-0.44282340000000003,3.19790304,1.4601204,2.03,-122.779999,-7.56,1770467844.281967
-0.20106576,2.86518708,0.7539966,-4.48,-131.880005,-5.95,1770467844.289965
0.14840568,2.573163,0.07420284,-14.14,-134.960007,-2.17,1770467844.298002
1.29974652,2.75507964,-0.35425872,-11.9,-137.130005,10.15,1770467844.30599
1.4146412400000001,2.53486476,-0.18909756000000003,-4.76,-127.75,21.42,1770467844.31396
1.6970907600000003,2.4822046799999997,0.49548348,3.43,-105.839996,24.92,1770467844.32196
1.9603911600000001,2.7718351200000004,1.9747530000000002,12.81,-75.459999,22.75,1770467844.329962
2.1806060400000002,3.21705216,4.18408272,13.23,-33.110001,15.68,1770467844.3381
2.34097992,3.4947144000000003,6.94873692,14.21,12.53,3.99,1770467844.345951
2.24284068,2.99923092,9.98865972,13.23,64.75,0.98,1770467844.353953
1.36916208,1.94602932,12.442140720000001,17.99,115.639999,-0.63,1770467844.36196
-0.56729268,0.86649768,14.7926952,28.98,157.149994,0.63,1770467844.369964
-3.1237002,0.23936400000000002,17.784745200000003,28.77,186.830002,2.73,1770467844.378009
-5.47425468,-0.30638592000000003,20.70019872,23.1,184.729996,12.6,1770467844.385986
-9.888126840000002,-2.1806060400000002,23.44809744,15.68,165.479996,17.57,1770467844.393948
-12.741345720000002,-5.51494656,24.44145804,-7.35,125.370003,-3.22,1770467844.401963
-13.43071404,-6.94873692,22.524152400000002,-10.78,63.630001,-7.7,1770467844.410095
-13.368479400000002,-7.360443,20.48477112,-19.32,-6.72,-18.76,1770467844.417985
-11.882028960000001,-7.066025280000001,18.70869024,-23.24,-75.389999,-18.129999,1770467844.42598
-9.21790764,-5.627447640000001,17.361070920000003,-32.34,-125.790001,-25.83,1770467844.433964
-5.9386208400000005,-3.78434484,16.293507480000002,-41.790001,-159.179993,-25.76,1770467844.442072
-2.812527,-2.00587032,15.237912240000002,-48.23,-182.070007,-25.41,1770467844.449957
-0.2034594,-0.5792608800000001,13.720344480000001,-56.700001,-191.449997,-21.700001,1770467844.457955
1.31410836,0.47633436000000007,11.702505960000002,-58.310001,-193.830002,-21.91,1770467844.465959
2.47023648,0.8880404399999999,9.423760680000001,-63.0,-186.410004,-23.17,1770467844.474072
3.6239709600000003,2.00587032,7.5279978,-60.970001,-191.940002,-38.009998,1770467844.481955
5.263614360000001,4.62690612,5.529308400000001,-39.34,-183.050003,-13.72,1770467844.490067
5.60590488,3.7005674400000004,5.4311691600000005,-28.98,-168.279999,9.17,1770467844.497943
5.86202436,3.61679004,4.62451248,-20.790001,-147.070007,21.07,1770467844.505976
5.8309070400000005,3.49232076,3.5210444400000003,-16.450001,-120.540001,32.27,1770467844.513959
5.5604257200000005,3.3941815200000005,2.46066192,-9.73,-88.410004,35.700001,1770467844.521958
5.131964160000001,3.3391278000000004,1.5438978,-5.81,-55.299999,40.18,1770467844.529982
4.63648068,3.2912550000000005,0.90479592,-1.19,-21.0,38.709999,1770467844.538049
4.10269896,2.9441772,0.56729268,2.59,13.51,33.32,1770467844.545985
3.6143964,2.4654492,0.34468416,5.18,46.130001,33.529999,1770467844.553958
3.21226488,1.9053374400000003,0.17712936,7.7,75.110001,25.34,1770467844.561957
2.7359305199999997,1.68033528,0.22500216000000003,14.21,102.480003,19.6,1770467844.569958
2.3577354,1.5821960400000001,0.7587838800000001,19.18,123.970001,15.54,1770467844.577992
2.1901806,1.496025,1.9962957600000002,26.950001,143.220001,11.06,1770467844.585997
2.27874528,1.39788576,4.038070680000001,28.629999,160.720001,7.49,1770467844.594085
2.48459832,1.3093210800000001,6.893683200000001,29.68,178.080002,3.08,1770467844.601959
2.3577354,1.0579888800000001,9.483601680000001,38.849998,194.949997,-4.83,1770467844.60997
1.75453812,0.29441772,11.24771436,45.849998,211.259995,-8.05,1770467844.617972
0.9000086400000001,-0.58165452,12.66474924,60.200001,224.139999,-3.5,1770467844.626003
-0.28005588000000003,-0.96224328,14.223008880000002,68.110001,230.160004,-0.35,1770467844.633967
-1.6875162000000001,-0.83059308,16.29829476,71.75,219.800003,12.32,1770467844.641964
-3.4348734000000003,-0.6414955200000001,19.122789960000002,67.269997,191.520004,22.26,1770467844.649956
-5.1104214,-0.7539966,20.64993228,58.310001,150.639999,40.459999,1770467844.657953
-7.32932568,-1.14415992,20.9563182,52.779999,101.080002,53.060001,1770467844.665988
-9.423760680000001,-2.7718351200000004,21.11669208,36.540001,71.400002,49.490002,1770467844.674001
-10.7833482,-3.0135927600000003,19.11082176,25.200001,39.34,17.709999,1770467844.681967
-10.71632628,-2.6306103600000004,17.48314656,21.35,11.27,10.29,1770467844.689962
-10.3046202,-1.4601204,16.11159084,15.54,-9.8,-1.4,1770467844.697939
-9.57934728,0.026330040000000002,14.94110088,13.65,-18.76,-7.07,1770467844.706154
-8.51178384,1.5175677600000002,13.904654760000001,8.33,-24.01,-12.39,1770467844.713965
-7.43943312,3.21226488,12.729377520000002,5.88,-28.209999,-17.57,1770467844.721964
-6.268943160000001,4.10987988,11.558887560000002,7.0,-38.150002,-19.25,1770467844.729962
-5.28755076,4.330094760000001,10.33334388,2.03,-51.869999,-27.299999,1770467844.737963
-4.43302128,3.77955756,9.024022800000001,3.08,-69.650002,-29.540001,1770467844.746008
-3.6479073600000005,3.26971224,7.37480484,2.8,-88.199997,-39.970001,1770467844.753959
-2.2380534,3.76519572,5.78782152,7.63,-108.220001,-28.700001,1770467844.761961
-1.8790073999999999,3.6742374,5.00749488,11.48,-126.980003,-25.969999,1770467844.769958
-1.38113028,3.94711236,4.136209920000001,9.52,-136.850006,-26.32,1770467844.777964
-0.897615,4.18647636,3.26971224,12.18,-137.550003,-28.91,1770467844.786009
-0.4069188,4.44498948,2.45826828,10.15,-133.770004,-32.830002,1770467844.793954
0.7348474800000001,5.143932360000001,1.70666532,17.01,-133.419998,-23.24,1770467844.801961
0.8736786000000001,5.11281504,1.53432324,20.02,-127.82,-20.93,1770467844.810003
1.1369790000000002,4.8590892,1.3093210800000001,15.75,-121.309998,-15.61,1770467844.818048
1.40267304,4.2846156,1.06756344,15.75,-114.449997,-15.19,1770467844.825964
1.77368724,3.53540628,1.19682,17.57,-105.209999,-21.0,1770467844.833957
2.18299968,2.54204568,1.6970907600000003,17.99,-92.330002,-21.35,1770467844.841968
2.54443932,1.46251404,2.6018866800000002,21.0,-76.089996,-28.0,1770467844.849986
2.79098424,0.67500648,3.98301696,19.879999,-55.369999,-33.389999,1770467844.857961
2.79337788,0.22260852,5.7662787600000005,15.96,-32.48,-34.23,1770467844.866076
2.333799,-0.0047872800000000005,7.84395828,9.66,-8.12,-38.709999,1770467844.873955
1.50081228,-0.69176196,9.828285840000001,-0.63,15.68,-38.43,1770467844.881959
0.7563902400000001,-1.21836276,12.2793732,0.91,38.009998,-39.549999,1770467844.890043
-0.11250108000000002,-1.8359218800000001,15.898556880000001,2.31,53.200001,-37.310001,1770467844.897943
-0.7803266400000001,-2.14948872,20.1783852,1.54,52.290001,-40.459999,1770467844.905948
-2.15188236,-2.58752484,23.761664279999998,-11.76,47.32,-42.349998,1770467844.913975
-3.1859348400000003,-3.4492352400000006,24.68082204,-23.799999,36.75,-26.6,1770467844.921959
-3.89205864,-3.72450384,23.764057920000003,-26.32,22.33,-17.08,1770467844.92999
-5.06972952,-5.2037733600000005,22.581599760000003,-35.0,16.66,-14.84,1770467844.937956
-4.58621424,-5.21095428,19.781040960000002,-40.040001,3.85,-32.48,1770467844.94601
-3.32476596,-3.84418584,17.27489988,-40.25,-12.04,-28.559999,1770467844.954064
-2.30746896,-1.9412420400000001,15.381530640000001,-43.259998,-25.48,-19.950001,1770467844.961964
-1.35958752,-0.08138376,13.95731484,-44.450001,-35.91,-14.0,1770467844.969983
-0.40452516000000005,1.2016072800000002,12.61927008,-51.029999,-43.540001,-7.91,1770467844.97806
0.35186508,1.9173056400000001,11.341066320000001,-56.91,-45.43,-3.15,1770467844.986903
0.60559092,1.8191664,9.97908516,-62.860001,-40.669998,-5.53,1770467844.994163
0.9981478800000001,1.7880490800000002,8.377740000000001,-65.099998,-34.93,-8.61,1770467845.00197
1.71384624,2.8292824800000003,6.64474464,-55.509998,-30.66,0.42,1770467845.010001
2.4032145600000003,2.96571996,5.4838292399999995,-45.220001,-28.139999,38.080002,1770467845.018003
2.1064032,3.15721116,4.49525592,-40.529999,-22.75,39.549999,1770467845.026104
2.0082639600000003,3.5018953200000005,3.59046,-38.220001,-20.65,49.139999,1770467845.033938
1.8909756,3.7747702800000003,2.7838033200000005,-35.560001,-15.54,49.209999,1770467845.041961
1.69469712,4.10030532,2.1447014400000004,-24.57,-12.67,50.049999,1770467845.049971
1.62528156,4.04285796,1.855071,-18.969999,-7.56,51.029999,1770467845.057946
1.4912377200000002,3.7221102,1.6731543600000003,-10.99,0.91,47.32,1770467845.065996
1.39788576,3.1045510800000002,1.61091972,-5.32,11.76,46.549999,1770467845.073979
1.31889564,2.5755566400000003,1.6204942800000002,0.98,24.85,41.720001,1770467845.081958
1.13937264,2.20932972,1.53432324,11.55,37.240002,35.139999,1770467845.089954
0.9215514,2.06331768,1.58698332,20.65,50.959999,24.99,1770467845.097986
0.81862488,1.8742201200000002,2.13273324,29.959999,63.630001,19.18,1770467845.106029
0.8258058,1.7473572000000002,3.30801048,38.43,70.629997,8.47,1770467845.113964
0.9574560000000001,1.7688999600000002,5.50297836,42.84,77.980003,2.31,1770467845.121939
1.02447792,1.9962957600000002,8.3418354,49.77,85.050003,-8.89,1770467845.12995
0.9335196,1.8718264800000002,11.082553200000001,52.080002,92.190002,-16.73,1770467845.13795
0.56729268,1.33325748,12.782037599999999,60.970001,103.529999,-17.43,1770467845.14603
0.07899012000000001,0.61755912,14.084177760000001,73.290001,114.029999,-17.57,1770467845.153956
-0.2872368,-0.09095832000000001,15.92728056,83.440002,115.849998,-6.3,1770467845.161955
-0.85692312,-0.72527292,18.667998360000002,88.129997,101.639999,8.47,1770467845.169948
-2.18299968,-1.1202235200000001,20.94195636,79.449997,80.5,28.49,1770467845.177971
-3.41572428,-1.15612812,21.71749572,71.959999,62.16,36.82,1770467845.185955
-4.3396693200000005,-1.50320592,21.530791800000003,59.849998,40.599998,45.849998,1770467845.193948
-5.8309070400000005,-2.30268168,20.63078316,43.330002,42.07,47.459999,1770467845.20196
-8.10965232,-3.61200276,19.1012472,25.76,45.57,34.860001,1770467845.210257
-6.8577786000000005,-2.31225624,17.157611520000003,17.99,44.099998,13.51,1770467845.217883
-7.05884436,-1.12740444,15.726214800000001,11.76,43.119999,2.87,1770467845.225951
-6.81469308,0.52420716,14.64668316,1.68,36.400002,-4.97,1770467845.233947
-6.268943160000001,2.0704986,13.56954516,-14.7,25.200001,-10.5,1770467845.241956
-5.59393668,3.15242388,12.21474492,-29.540001,7.63,-15.75,1770467845.249954
-4.7992482,3.73647204,10.88148744,-46.34,-9.8,-17.219999,1770467845.257949
-3.98780424,3.7987066800000004,9.617645520000002,-57.540001,-27.440001,-25.48,1770467845.265956
-3.10694472,3.57370452,8.39210184,-62.790001,-41.790001,-31.57,1770467845.274034
-2.2859262,3.3367341600000002,7.4561886,-60.970001,-51.380001,-37.52,1770467845.281969
-1.6635798000000002,3.15242388,6.64474464,-53.34,-57.68,-38.779999,1770467845.289948
-1.2925655999999999,3.0159864,5.7758533199999995,-41.509998,-58.450001,-41.650002,1770467845.297934
-1.18006452,2.5970994,4.79206728,-28.77,-57.75,-46.130001,1770467845.305943
-1.1489472,2.3290117200000005,3.77237664,-19.530001,-54.040001,-54.110001,1770467845.313977
-0.39734424,2.79816516,2.70720684,-7.63,-46.970001,-40.110001,1770467845.322006
0.0478728,4.0045597200000005,1.96757208,8.89,-56.0,-25.48,1770467845.329965
-0.23936400000000002,4.08594348,1.92448656,15.96,-60.900002,-16.940001,1770467845.33796
-0.1316502,4.1649336,1.8191664,21.35,-64.400002,-5.32,1770467845.345972
0.0718092,4.0045597200000005,1.735389,21.98,-69.019997,-3.64,1770467845.353975
0.27048132,3.56412996,1.6755480000000003,20.02,-71.889999,4.97,1770467845.362051
0.48830256000000005,2.81013336,1.85985828,20.09,-70.0,7.28,1770467845.369968
0.70373016,1.99150848,2.453481,15.54,-59.43,9.87,1770467845.377965
0.81623124,1.21836276,3.44444796,13.3,-42.630001,6.37,1770467845.386
0.76357116,0.6103782,5.0146758,3.43,-22.540001,7.84,1770467845.393963
0.3949506,0.24654492000000003,7.061238,-6.23,1.54,5.88,1770467845.401959
-0.1555866,-0.1555866,9.02641644,-6.58,25.76,2.31,1770467845.410093
-0.4906962,-0.79468848,10.83361464,-1.54,44.450001,-2.8,1770467845.418008
-1.34761932,-1.4361840000000001,12.947198760000001,10.29,56.91,-4.76,1770467845.425983
-2.7718351200000004,-1.32128928,15.6663738,10.99,65.660004,-5.67,1770467845.434073
-3.9255696,-1.10825532,19.3525794,0.77,71.400002,-13.16,1770467845.441957
-4.68435348,-1.7880490800000002,21.71510208,-19.040001,67.760002,-12.81,1770467845.450062
-5.507765640000001,-2.9154535200000002,22.60074888,-37.66,59.5,-10.01,1770467845.457981
-6.00324912,-4.1553590400000004,22.9669758,-36.470001,45.779999,1.4,1770467845.465957
-6.256974960000001,-4.32530748,22.39728948,-35.139999,23.940001,6.09,1770467845.473953
-5.92665264,-3.5018953200000005,20.8007316,-42.490002,-7.14,8.12,1770467845.481962
-5.19659244,-2.4319382400000005,18.76853124,-53.970001,-37.240002,5.32,1770467845.489963
-3.8513667600000003,-1.2327246,16.62622344,-67.900002,-58.59,-3.5,1770467845.497957
-2.29071348,-0.3949506,14.63471496,-74.199997,-70.980003,-4.62,1770467845.505959
-0.7683584400000001,-0.026330040000000002,12.3631506,-75.949997,-78.75,-6.65,1770467845.514006
0.42606792,0.14840568,10.4003658,-73.220001,-85.330002,-1.96,1770467845.521989
1.1369790000000002,0.42128064000000004,8.70806232,-65.870003,-85.75,-2.73,1770467845.52995
1.6228879200000002,0.66782556,7.21921824,-62.09,-81.199997,-2.52,1770467845.537943
2.4032145600000003,1.8909756,5.5604257200000005,-50.330002,-84.910004,-10.92,1770467845.546009
4.73461992,6.22825128,2.8292824800000003,-31.85,-92.330002,-1.05,1770467845.553951
3.2840740800000003,4.83275916,3.67902468,-11.97,-96.529999,14.56,1770467845.561967
3.5545554,5.52691476,3.4396606800000002,-3.29,-92.889999,21.07,1770467845.56996
3.67663104,5.64659676,3.3439150800000004,-4.34,-82.739998,29.049999,1770467845.577958
3.7819512,5.469467400000001,3.02077368,-6.58,-65.519997,32.619999,1770467845.586025
3.6503010000000002,5.3449981200000005,2.44869372,-6.93,-42.560001,33.040001,1770467845.594015
3.35588328,5.163081480000001,1.71623988,-9.52,-17.5,30.379999,1770467845.601964
3.05667828,4.71307716,1.12979808,-5.6,10.29,23.309999,1770467845.610024
2.9154535200000002,3.98301696,0.7468156800000001,-0.77,41.650002,20.299999,1770467845.618019
2.7407178,3.30801048,0.7611775199999999,11.76,70.629997,16.1,1770467845.625956
2.52050292,2.99205,1.55107872,22.540001,98.980003,10.85,1770467845.633945
2.59470576,3.10215744,3.4492352400000006,35.419998,121.099998,11.83,1770467845.641964
2.70241956,3.34870236,5.964950880000001,47.459999,142.520004,4.13,1770467845.64999
2.5851311999999997,3.1811475600000003,8.52853932,50.049999,162.190002,4.13,1770467845.657961
2.09682864,2.6569404000000003,10.7594118,57.470001,182.139999,0.91,1770467845.666008
1.11543624,2.0561367600000002,12.30809688,64.050003,199.080002,1.47,1770467845.673955
-0.26569404,1.42900308,13.739493600000001,70.629997,210.070007,7.84,1770467845.682001
-1.63724976,1.12740444,15.86504592,77.559998,208.25,14.7,1770467845.689963
-3.2290203600000003,0.98378604,18.66560472,70.0,191.380005,26.32,1770467845.697946
-5.151113280000001,0.29202408,20.7767952,55.509998,161.490005,31.92,1770467845.705961
-6.1660166400000005,-0.8425612800000001,21.46616352,43.610001,114.379997,50.470001,1770467845.713964
-9.024022800000001,-3.1284874800000004,21.272278680000003,33.110001,78.959999,63.98,1770467845.721967
-10.328556599999999,-5.87159892,19.752317280000003,9.87,45.150002,27.58,1770467845.72996
-10.34291844,-6.92480052,17.8206498,0.91,18.34,9.17,1770467845.737965
-10.05807528,-6.788363040000001,15.857865000000002,-7.21,-2.1,2.66,1770467845.746041
-9.46445256,-6.039153720000001,14.364233640000002,-16.66,-12.25,-9.38,1770467845.753993
-8.437581,-4.38754212,13.36608576,-21.07,-16.66,-14.0,1770467845.762024
-7.15458996,-2.24762796,12.69107928,-21.209999,-22.75,-23.030001,1770467845.769957
-5.73037416,-0.18191664000000002,12.018466440000001,-27.23,-34.02,-25.549999,1770467845.777957
-4.62451248,1.52474868,11.02989312,-25.41,-47.810001,-25.690001,1770467845.785984
-3.5760981600000004,2.55162024,9.93121236,-23.799999,-60.900002,-30.1,1770467845.79401
-2.6689086000000004,3.0734337600000003,8.832531600000001,-14.56,-74.339996,-26.389999,1770467845.801967
-2.05134948,3.17875392,7.70991444,-7.42,-86.870003,-31.5,1770467845.810114
-1.68033528,3.2553504,6.5226690000000005,-0.28,-95.550003,-36.959999,1770467845.818007
-1.3069274400000002,3.88009044,5.04100584,13.65,-91.419998,-41.93,1770467845.825965
-0.016755480000000003,4.78728,3.6838119600000003,21.280001,-103.879997,-34.720001,1770467845.833956
0.4667598,4.8471210000000005,3.01119912,30.24,-113.68,-21.629999,1770467845.841956
0.6534637200000001,5.033824920000001,2.38885272,24.92,-119.0,-17.290001,1770467845.849974
0.9119768400000001,5.11281504,1.8000172800000003,19.879999,-124.459999,-12.95,1770467845.857967
1.2327246,4.904568360000001,1.1226171600000001,10.57,-124.879997,-6.79,1770467845.865959
1.4601204,4.25828556,0.6821874000000001,-0.77,-121.870003,-1.54,1770467845.873994
1.6420370400000002,4.2247746,0.33750324,-2.8,-106.400002,6.58,1770467845.881971
1.8766137600000001,3.4899271200000004,0.66303828,1.12,-85.889999,10.5,1770467845.889961
2.09204136,2.77422876,1.7306017200000001,3.99,-58.240002,8.89,1770467845.897942
2.13512688,2.3218308000000003,3.60960912,7.77,-17.92,5.81,1770467845.90596
1.9556038800000002,1.8024109200000002,6.376656960000001,3.43,24.219999,-5.32,1770467845.91397
1.61091972,0.9981478800000001,9.15088572,-3.64,67.480003,-14.0,1770467845.921961
0.6223464,-0.25611948,11.207022480000001,2.87,109.830002,-23.799999,1770467845.93007
-0.85931676,-1.19442636,12.8418786,9.8,141.820007,-18.549999,1770467845.937955
-3.01119912,-1.4146412400000001,15.38392428,17.92,150.779999,-20.370001,1770467845.946011
-6.50830716,-1.75453812,18.76853124,10.36,145.600006,-16.1,1770467845.953964
-10.18015092,-3.6622692,21.277065959999998,-8.33,120.400002,-43.540001,1770467845.961975
-10.529622360000001,-3.9423250800000003,21.90419964,-17.43,76.510002,-53.830002,1770467845.970156
-10.740262679999999,-5.51015928,21.50924904,-28.07,8.68,-46.27,1770467845.979749
-9.8019558,-7.101929880000001,20.494345680000002,-30.1,-39.689999,-40.669998,1770467845.986796
-8.10965232,-7.295814720000001,19.45311228,-33.32,-79.099998,-42.700001,1770467845.994037
-5.85963072,-6.039153720000001,18.44538984,-38.43,-109.690002,-43.75,1770467846.002024
-3.3965751600000003,-4.12663536,17.133675120000003,-46.900002,-132.509995,-43.889999,1770467846.009965
-1.09389348,-2.3457672,15.441371640000002,-57.119999,-142.800003,-39.200001,1770467846.017982
0.69654924,-0.7731457199999999,13.224861,-61.529999,-146.860001,-37.169998,1770467846.026086
1.4146412400000001,0.48830256000000005,10.81685916,-61.32,-148.960007,-32.27,1770467846.033973
2.0082639600000003,1.38352392,8.61949764,-63.98,-144.830002,-36.049999,1770467846.041958
2.9752945200000003,2.29310712,7.14740904,-61.669998,-155.75,-51.099998,1770467846.049962
4.4042976000000005,4.55030964,6.02239824,-41.23,-159.740005,-8.12,1770467846.057959
4.938079320000001,4.643661600000001,5.53648932,-33.669998,-149.729996,9.59,1770467846.066005
5.3761154399999995,4.488075,4.8231846,-30.450001,-134.889999,19.809999,1770467846.074063
5.45989284,4.059613440000001,3.6933865200000002,-24.780001,-113.889999,28.84,1770467846.08196
5.29712532,3.55934268,2.35294812,-13.23,-88.970001,35.91,1770467846.089958
4.851908280000001,3.37742604,1.16570268,-3.36,-59.220001,35.349998,1770467846.097945
4.243923720000001,3.42769248,0.23697036000000002,6.23,-27.02,37.450001,1770467846.106046
3.7029610800000006,2.97768816,-0.14601204,9.66,7.07,31.15,1770467846.114055
3.31040412,2.2189042800000003,-0.28005588000000003,15.12,42.84,22.4,1770467846.121956
2.96571996,1.7449635600000002,-0.31596048000000004,24.780001,78.959999,13.3,1770467846.129956
2.61624852,1.7090589600000001,0.22978944,37.869999,112.910004,7.0,1770467846.137979
2.43672552,1.8526773600000002,1.4457585600000002,52.220001,142.800003,2.52,1770467846.145937
2.4822046799999997,2.1207650399999998,3.6143964,62.23,167.789993,-0.91,1770467846.153963
2.7263559600000002,2.38406544,6.891289560000001,66.849998,188.300003,-0.91,1770467846.161956
2.6449722,2.36730996,10.192119120000001,74.339996,207.059998,-8.12,1770467846.169954
2.0345940000000002,1.8454964400000002,12.078307440000001,72.660004,222.389999,-9.8,1770467846.178158
0.79947576,0.88085952,13.33018116,79.309998,233.309998,-9.38,1770467846.185936
-0.9526687200000001,0.23697036000000002,14.720886,84.769997,234.710007,-5.67,1770467846.193963
-2.73114324,-0.07899012000000001,16.8871302,81.339996,218.960007,4.55,1770467846.201961
-4.71307716,-0.27287496,20.17120428,70.349998,183.75,18.34,1770467846.209948
-6.64953192,-0.8832531600000001,21.78451764,49.490002,133.210007,38.57,1770467846.217963
-10.26632196,-2.74550508,21.427865280000002,32.970001,92.959999,54.950001,1770467846.226032
-11.917933560000002,-5.79500244,19.86242472,9.45,62.09,18.48,1770467846.233958
-11.77192152,-7.183313640000001,17.95708728,3.99,28.98,3.01,1770467846.24196
-11.309949000000001,-6.941556,16.20015552,0.91,0.98,-7.21,1770467846.249952
-10.503292320000002,-5.854843440000001,14.8525362,-4.69,-17.219999,-18.41,1770467846.257986
-9.35434512,-4.2128064,14.04109224,-12.67,-25.200001,-27.790001,1770467846.265981
-7.958853,-2.2404470400000003,13.385234880000002,-20.09,-28.559999,-32.900002,1770467846.273963
-6.55378632,-0.38776968,12.62405736,-31.360001,-33.599998,-41.09,1770467846.281942
-5.3976582,0.89282772,11.518195680000002,-41.93,-40.529999,-44.939999,1770467846.28995
-4.29179652,1.52474868,10.26632196,-46.970001,-49.77,-51.59,1770467846.297955
-3.38939424,1.94842296,8.9282772,-44.869999,-59.080002,-54.599998,1770467846.306006
-2.5827375600000004,2.25480888,7.693158960000001,-36.68,-70.629997,-61.110001,1770467846.314012
-1.8454964400000002,2.69763228,6.61123368,-25.34,-79.870003,-56.84,1770467846.321963
-1.8000172800000003,2.88912348,5.70404412,-8.19,-85.75,-64.959999,1770467846.329957
-1.44097128,3.93993144,4.5838206,10.43,-89.879997,-62.23,1770467846.337981
-0.17234208,5.129570520000001,3.5186508,32.970001,-90.790001,-47.950001,1770467846.3461
-0.07420284,5.10563412,3.4181179200000003,39.200001,-103.32,-29.82,1770467846.353973
0.17952300000000002,5.21334792,2.9681136,35.0,-113.610001,-18.27,1770467846.362
0.48830256000000005,5.1343578,2.3170435200000004,26.879999,-123.970001,-14.49,1770467846.369963
0.86889132,4.87345104,1.5821960400000001,19.110001,-133.699997,-3.92,1770467846.377957
1.21836276,4.47371316,1.00054152,16.870001,-139.720001,-0.21,1770467846.386013
1.6204942800000002,4.10987988,0.7659648,15.89,-138.320007,8.4,1770467846.394128
1.99390212,3.7939194,0.84016764,15.33,-128.100006,7.91,1770467846.401966
2.3912463600000002,3.4899271200000004,1.40506668,18.200001,-108.639999,4.69,1770467846.409962
2.8723680000000003,3.38460696,2.7359305199999997,10.57,-76.440002,0.07,1770467846.418112
3.4348734000000003,3.4396606800000002,4.6747789200000005,4.13,-34.93,-5.74,1770467846.42595
3.8513667600000003,3.4300861200000003,7.15458996,-7.91,12.11,-7.14,1770467846.433973
3.91599504,2.9202408,9.699029280000001,-22.68,63.279999,-11.06,1770467846.441991
3.4013624399999998,1.735389,12.353576040000002,-22.75,115.150002,-18.34,1770467846.449983
2.18299968,0.43803612,15.28578504,-12.88,163.729996,-25.200001,1770467846.457963
-0.29441772,-0.22978944,19.08209808,1.47,205.660004,-31.709999,1770467846.465959
-3.0351355200000003,-1.376343,22.320693000000002,3.08,225.820007,-30.940001,1770467846.474094
-5.677714079999999,-3.22183944,24.654492,8.54,213.710007,-23.17,1770467846.481957
-8.58838032,-4.8830256,24.39358524,10.78,185.149994,-13.72,1770467846.489956
-11.537344800000001,-6.4029869999999995,21.98079612,-5.11,118.720001,-30.870001,1770467846.497966
-12.5546418,-7.0420888800000006,20.015617680000002,-12.6,44.869999,-36.330002,1770467846.505954
-12.061551960000001,-6.7931503200000005,17.6291586,-24.43,-30.66,-37.380001,1770467846.514089
-10.16818272,-5.63223492,15.33365784,-32.900002,-89.739998,-35.84,1770467846.52196
-7.513635960000001,-4.11466716,13.73709996,-37.099998,-136.289993,-42.700001,1770467846.529954
-4.7824927200000005,-2.6234294400000002,12.372725160000002,-45.779999,-162.119995,-40.110001,1770467846.537939
-2.1806060400000002,-1.2590546400000002,10.917392040000001,-47.25,-177.520004,-41.790001,1770467846.546
-0.17473572,0.059841000000000005,9.3711006,-46.900002,-183.259995,-30.379999,1770467846.55397
0.88085952,0.96224328,8.07374772,-47.810001,-180.179993,-27.51,1770467846.561992
1.6181006400000002,1.11064896,7.075599840000001,-43.889999,-166.880005,-34.650002,1770467846.57002
3.57131088,1.73778264,5.457499200000001,-32.34,-163.660004,-30.24,1770467846.578005
4.646055240000001,2.96093268,5.2372843200000005,-3.22,-145.669998,8.54,1770467846.585971
4.66999164,3.5330126400000004,4.31333928,3.57,-131.669998,25.549999,1770467846.593984
4.56467148,3.77716392,3.36785148,8.26,-110.389999,38.919998,1770467846.601975
4.248711,4.040464320000001,2.40082092,15.75,-85.120003,45.639999,1770467846.610031
3.8106748800000005,4.05243252,1.68272892,16.450001,-56.139999,51.380001,1770467846.617978
3.46838436,3.63354552,1.40746032,23.52,-27.16,47.740002,1770467846.625958
3.0997638,2.9346026400000005,1.21836276,25.969999,4.97,47.880001,1770467846.63399
2.71438776,2.32661808,1.01969064,30.1,34.860001,42.209999,1770467846.641985
2.3697036000000002,2.02741308,1.0053288,40.110001,60.41,30.59,1770467846.64995
2.08725408,1.7712936000000001,1.5462914399999999,45.779999,82.739998,26.6,1770467846.657988
2.02501944,1.4792695200000001,2.76704784,48.860001,101.639999,15.26,1770467846.66612
2.22129792,1.20400092,4.837546440000001,47.740002,115.919998,10.64,1770467846.673953
2.49656652,0.8329867200000001,7.702733520000001,39.549999,130.270004,2.59,1770467846.681981
2.3864590800000003,0.33271596000000003,10.060468920000002,36.540001,141.539993,-1.05,1770467846.689988
1.6994844000000002,-0.47633436000000007,11.62351584,35.630001,155.399994,-9.59,1770467846.698096
0.9071895600000001,-1.37155572,12.633631920000001,46.130001,167.369995,-5.11,1770467846.70596
-0.02872368,-1.95799752,13.966889400000001,56.279999,169.610001,0.07,1770467846.713957
-1.1728836,-2.54204568,16.26717744,57.540001,155.539993,14.0,1770467846.721969
-2.86997436,-2.3218308000000003,19.31188752,54.18,132.509995,21.280001,1770467846.72996
-4.53834144,-2.2619898000000003,20.7408906,43.189999,101.080002,35.349998,1770467846.737958
-6.71894748,-2.7407178,20.87014716,32.759998,78.959999,45.849998,1770467846.746009
-9.22030128,-4.964409359999999,20.4416856,9.8,56.07,16.73,1770467846.754001
-9.6104646,-5.14871964,18.75177576,-3.15,35.77,12.18,1770467846.76198
-9.8498286,-4.49525592,16.85601288,-5.67,16.309999,-0.14,1770467846.769962
-9.69184836,-3.1452429600000005,15.185252160000001,-10.36,-0.35,-2.87,1770467846.777996
-9.0000864,-1.5415041600000001,14.18949792,-16.1,-13.44,-11.27,1770467846.78595
-7.86789468,0.14601204,13.531246920000001,-22.4,-24.01,-19.809999,1770467846.793971
-6.63517008,1.55347236,12.83469768,-35.560001,-32.27,-20.58,1770467846.801965
-5.49819108,2.6090676,11.834156160000001,-41.860001,-39.200001,-20.93,1770467846.809961
-4.54312872,3.3439150800000004,10.534409640000002,-43.75,-48.369999,-19.879999,1770467846.817976
-3.91838868,3.43726704,9.337589640000001,-37.380001,-56.91,-20.09,1770467846.825989
-3.43247976,3.17875392,8.14555692,-27.58,-66.43,-25.059999,1770467846.833957
-2.7766224000000004,3.02316732,7.1498026800000005,-9.8,-75.25,-29.120001,1770467846.84198
-1.47687588,3.88009044,6.0583028400000005,13.86,-87.919998,-12.25,1770467846.850034
-1.3093210800000001,3.81546216,5.6585649600000005,22.889999,-99.75,-10.57,1770467846.857957
-0.9407005200000002,3.84418584,4.806429120000001,26.110001,-110.879997,-15.33,1770467846.865981
-0.39734424,3.4181179200000003,3.8992395600000003,14.56,-125.019997,-22.26,1770467846.874041
-0.11010744,3.25056312,2.9202408,3.01,-131.669998,-25.48,1770467846.881995
-0.38058875999999997,3.470778,1.83352824,-3.71,-128.100006,-21.91,1770467846.88996
0.84734856,4.52876688,0.5792608800000001,-5.11,-131.529999,-16.24,1770467846.897951
1.01969064,4.12663536,0.16516116,-6.44,-135.940002,1.33,1770467846.906042
1.48166316,4.0572198,0.00718092,-9.45,-139.789993,1.75,1770467846.914182
2.1423078,3.5976409200000004,0.24415128000000003,-5.32,-136.429993,3.43,1770467846.921966
2.99923092,2.68327044,1.04841432,0.0,-122.989998,3.99,1770467846.930534
3.6407264400000003,2.30268168,2.22369156,6.65,-102.760002,-2.24,1770467846.937963
4.2128064,2.34097992,3.8034939600000004,8.12,-69.860001,1.33,1770467846.945965
4.452170400000001,2.4822046799999997,5.79978972,-3.22,-26.879999,-1.96,1770467846.953959
4.55749056,2.50853472,7.779330000000001,-13.79,19.879999,0.63,1770467846.961971
4.42105308,1.70666532,9.88094592,-19.950001,66.080002,-7.07,1770467846.970254
3.63354552,0.3111732,11.8844226,-21.07,113.260002,-9.45,1770467846.978408
2.76704784,-0.98378604,14.10093324,-5.53,157.570007,-13.02,1770467846.986291
1.9771466400000002,-2.01544488,17.313198120000003,6.09,186.759995,-10.57,1770467846.994061
-0.18191664000000002,-2.90348532,20.48237748,13.02,198.729996,-0.49,1770467847.001975
-2.74311144,-4.22716824,22.81857012,20.790001,191.729996,13.3,1770467847.009977
-6.63756372,-5.61787308,24.415128,21.0,178.5,24.99,1770467847.018101
-8.88997896,-6.81469308,23.34038364,8.12,145.809998,2.31,1770467847.025968
-9.99584064,-6.30484776,21.61217556,-2.24,97.510002,-7.91,1770467847.033973
-10.20169368,-5.163081480000001,19.326249360000002,-18.34,45.919998,-1.82,1770467847.041963
-9.404611560000001,-3.73647204,16.7913846,-28.07,-4.41,-8.89,1770467847.049955
-7.63331796,-1.9867212,14.9961546,-38.360001,-44.52,-8.12,1770467847.05803
-5.457499200000001,-0.38537604000000003,13.68683352,-43.889999,-72.239998,-14.42,1770467847.065955
-3.37263876,1.0412334,12.336820560000001,-52.779999,-88.199997,-13.86,1770467847.073966
-1.6204942800000002,2.17581876,10.862338320000001,-57.82,-95.129997,-10.57,1770467847.081947
-0.7061238000000001,2.4726301200000003,9.45248436,-61.18,-97.580002,-11.9,1770467847.089957
0.0023936400000000003,2.5707693600000003,7.822415520000001,-63.91,-93.660004,-16.450001,1770467847.09795
1.14415992,2.9154535200000002,6.13729296,-49.209999,-78.400002,-2.31,1770467847.105999
2.3577354,3.6838119600000003,5.58196848,-26.879999,-80.989998,35.630001,1770467847.113954
2.39364,3.7077483600000005,5.146326,-13.44,-76.440002,44.66,1770467847.121967
2.6210358,3.6838119600000003,4.61015064,-2.31,-64.190002,54.18,1770467847.129958
2.79098424,3.7628020800000006,4.0691880000000005,9.45,-48.790001,57.540001,1770467847.137969
2.78619696,3.6503010000000002,3.7149292800000002,19.67,-33.32,59.150002,1770467847.145956
2.72396232,3.2194458000000004,3.56173632,25.76,-14.77,60.900002,1770467847.153951
2.6018866800000002,2.79337788,3.530619,25.059999,2.03,59.5,1770467847.161949
2.54204568,2.5707693600000003,3.5760981600000004,27.65,17.85,56.419998,1770467847.169957
2.4798110400000004,2.5181092800000004,3.45162888,30.309999,32.200001,46.060001,1770467847.178034
2.32422444,2.56837572,3.22662672,34.860001,43.400002,42.279999,1770467847.185974
2.0681049600000003,2.5252902,3.21705216,39.200001,54.32,33.32,1770467847.194298
1.9029438000000003,2.1447014400000004,3.4229052,44.099998,65.660004,29.610001,1770467847.202
1.8670392,1.56544056,4.28222196,56.209999,70.139999,15.26,1770467847.210026
2.05374312,1.0149033600000001,5.92665264,62.09,71.610001,4.48,1770467847.217946
2.15666964,0.47154708,8.2460898,71.400002,72.870003,-5.18,1770467847.225955
2.08007316,-0.11489472,10.347705720000002,68.459999,74.760002,-12.95,1770467847.233949
1.9053374400000003,-1.00293516,11.925114480000001,60.41,81.410004,-13.16,1770467847.241951
1.6875162000000001,-1.94363568,12.84666588,56.630001,80.779999,-8.68,1770467847.249978
1.6875162000000001,-4.01413428,14.3259354,43.189999,70.839996,8.96,1770467847.257991
0.7587838800000001,-4.16253996,15.838715880000002,36.470001,63.84,27.09,1770467847.265949
-0.7922948400000001,-3.6598755600000006,17.45442288,36.330002,67.059998,34.860001,1770467847.273953
-5.41680732,-5.876386200000001,19.357366680000002,28.629999,85.610001,24.5,1770467847.281942
-4.8351528,-4.25110464,18.14857848,20.299999,97.720001,9.17,1770467847.289949
-6.36947604,-3.58327908,17.53820028,16.73,112.489998,8.05,1770467847.297932
-7.908586560000001,-2.33858628,16.686064440000003,18.41,121.309998,10.43,1770467847.306072
-9.36870696,-0.38537604000000003,15.838715880000002,19.74,122.290001,5.81,1770467847.31396
-10.287864720000002,2.03220036,15.08232564,8.12,112.279999,12.81,1770467847.321968
-10.725900840000001,4.13142264,14.373808200000001,-1.19,83.650002,8.4,1770467847.329965
-10.529622360000001,5.38569,13.33496844,-26.879999,43.119999,5.18,1770467847.337954
-9.687061080000001,5.541276600000001,12.02325372,-44.099998,-8.05,-0.91,1770467847.345958
-8.334654480000001,5.2899444,10.36924848,-59.779999,-55.23,-13.51,1770467847.354056
-6.704585640000001,4.62451248,9.24184404,-68.879997,-89.459999,-9.45,1770467847.361994
-5.033824920000001,3.93035688,8.322686280000001,-72.449997,-116.410004,-14.14,1770467847.369962
-2.95135812,4.10748624,7.43943312,-73.080002,-135.309998,5.6,1770467847.377954
-1.8574646400000001,3.59524728,7.09474896,-74.480003,-143.429993,10.71,1770467847.385995
-0.6654319200000001,3.0758274,6.6064464,-74.760002,-141.889999,13.58,1770467847.393968
0.052660080000000005,2.3864590800000003,5.91947172,-74.129997,-132.720001,17.5,1770467847.402008
0.54096264,1.6755480000000003,5.17983696,-64.330002,-115.010002,7.35,1770467847.41001
1.2853846800000002,1.40267304,4.5000432,-54.459999,-98.559998,6.65,1770467847.417959
2.22369156,1.3165020000000003,4.129029,-35.77,-89.459999,13.79,1770467847.425962
1.6420370400000002,0.86410404,4.179295440000001,-21.77,-75.669998,16.379999,1770467847.434012
1.3165020000000003,0.6031972800000001,4.21998732,-12.25,-59.639999,19.25,1770467847.441991
0.97421148,0.33989688,4.44738312,-3.15,-47.110001,18.41,1770467847.44996
0.5601117600000001,0.19627848000000003,4.87345104,-0.91,-36.889999,19.25,1770467847.457957
0.13643748,0.05026644,5.32824264,1.89,-30.24,17.219999,1770467847.465986
-0.40931244,-0.08377740000000002,5.567606640000001,1.75,-25.549999,18.83,1770467847.474016
-0.9885733200000001,-0.17473572,5.531702040000001,-0.77,-25.549999,21.07,1770467847.481956
-1.24229916,-0.5625054,5.95537632,9.1,-24.92,20.16,1770467847.489964
-1.48884408,-1.11064896,7.1162917199999995,20.02,-21.139999,28.280001,1770467847.497974
-2.7287496000000004,-1.68990984,8.777477880000001,34.23,-7.98,37.450001,1770467847.506118
-3.1045510800000002,-1.7904427200000002,10.18733184,38.290001,7.28,36.889999,1770467847.513952
-4.76573724,-3.3822133200000004,11.709686880000001,31.99,18.41,20.16,1770467847.521963
-4.8806319600000005,-4.06679436,12.585759120000002,36.540001,23.52,9.38,1770467847.529948
-5.58675576,-4.45935132,13.4283204,43.189999,29.889999,12.95,1770467847.537989
-5.9481954,-4.30615836,14.483915640000001,53.200001,28.280001,15.68,1770467847.545967
-5.95537632,-3.25295676,15.367168800000002,53.200001,17.08,17.360001,1770467847.554041
-5.62026672,-1.5845896800000001,16.18579368,45.290001,-2.03,28.559999,1770467847.561964
-5.09366592,0.20106576,17.03553588,35.349998,-21.98,30.52,1770467847.570009
-4.25828556,1.6396434000000002,17.69139324,20.860001,-41.02,34.09,1770467847.578
-3.1356684,2.7646542000000003,18.00735372,5.46,-55.09,30.73,1770467847.585955
-1.88379468,3.40375608,17.3419218,-8.26,-66.57,35.209999,1770467847.59395
-0.8832531600000001,3.19790304,16.05174984,-17.92,-73.849998,36.119999,1770467847.602126
0.06462828000000001,2.84603796,14.50306476,-15.89,-81.760002,28.209999,1770467847.609957
0.79468848,2.1375205200000003,12.93523056,-13.3,-80.919998,30.17,1770467847.617952
3.02077368,4.03088976,9.95514876,3.22,-78.400002,50.259998,1770467847.626004
2.8915171200000005,4.25589192,10.115522640000002,18.200001,-79.449997,65.730003,1770467847.634019
3.1356684,4.97159028,9.00726732,24.99,-69.790001,74.199997,1770467847.641958
3.3151914000000002,5.80218336,7.609381560000001,33.669998,-56.630001,69.790001,1770467847.649954
3.30082956,6.946343280000001,6.276124080000001,35.560001,-43.540001,68.110001,1770467847.657955
3.051891,7.377198480000001,4.9763775599999995,29.540001,-30.1,62.93,1770467847.665996
2.67130224,7.247941920000001,3.7005674400000004,11.2,-18.129999,54.25,1770467847.673949
2.48459832,6.486764400000001,2.86279344,-15.33,-5.25,52.919998,1770467847.681959
2.4750237600000005,5.036218560000001,2.5755566400000003,-41.369999,7.28,48.09,1770467847.689965
2.6808768000000005,3.65748192,2.7478987200000002,-63.349998,21.98,51.73,1770467847.698094
2.91305988,2.3098626,3.2553504,-71.610001,32.970001,49.0,1770467847.705977
2.9896563600000006,1.18963908,4.083549840000001,-69.510002,39.41,51.029999,1770467847.713963
2.9322090000000003,0.20106576,5.18462424,-64.330002,45.57,50.259998,1770467847.721968
2.77901604,-0.70851744,6.30245412,-46.41,49.07,50.889999,1770467847.729954
2.50853472,-1.3284702000000002,7.08278076,-27.790001,56.349998,48.23,1770467847.738045
2.88912348,-2.64018492,7.875075600000001,-3.22,59.919998,53.689999,1770467847.745967
2.7814096800000003,-3.0183800400000003,8.542901160000001,23.870001,68.389999,60.689999,1770467847.753959
2.5109283600000003,-3.50907624,9.64158192,46.130001,77.769997,62.16,1770467847.761964
1.5079932,-5.043399480000001,11.05382952,64.120003,92.190002,46.34,1770467847.770004
1.42660944,-5.1941988,11.14478784,73.080002,107.940002,41.16,1770467847.777963
1.15612812,-5.50058472,11.747985120000001,85.959999,116.760002,39.900002,1770467847.785992
0.62713368,-5.58675576,12.344001480000001,91.839996,120.190002,37.799999,1770467847.793963
-0.1555866,-5.361753600000001,12.39666156,94.5,121.660004,38.150002,1770467847.802052
-0.97421148,-4.64844888,12.28655412,95.620003,119.839996,33.32,1770467847.809969
-1.5965578800000002,-3.61918368,12.28416048,89.599998,116.900002,37.450001,1770467847.817967
-2.36730996,-2.5803439200000002,12.49240716,84.0,113.82,37.380001,1770467847.826006
-3.21226488,-1.5486850800000003,12.91129416,80.989998,119.07,37.73,1770467847.833965
-4.22716824,-0.39016332000000004,13.358904840000001,72.449997,131.179993,36.68,1770467847.841961
-5.07691044,1.2231500400000002,13.73470632,68.32,142.169998,34.439999,1770467847.84996
-5.79500244,3.00162456,14.206253400000001,55.720001,149.029999,34.439999,1770467847.857989
-6.35990148,4.8231846,14.51024568,41.650002,143.5,28.559999,1770467847.866055
-6.85059768,6.582510000000001,14.25651984,21.0,126.489998,20.719999,1770467847.873965
-7.17852636,7.13783448,13.739493600000001,-2.94,104.089996,9.59,1770467847.881962
-5.91468444,8.21736612,12.267405,-15.68,67.970001,12.32,1770467847.889975
-6.1444738800000005,7.23118644,11.685750480000001,-32.41,38.779999,9.03,1770467847.89797
-5.373721800000001,6.29766684,10.627761600000001,-43.470001,13.79,1.96,1770467847.905967
-4.36360572,5.22292248,9.576953640000001,-51.52,-5.81,0.42,1770467847.914029
-3.2481694800000005,4.52876688,8.66258316,-57.189999,-18.690001,-1.05,1770467847.921968
-2.2260852000000004,4.11466716,7.98039576,-54.810001,-27.440001,-2.31,1770467847.930054
-1.40746032,3.8585476800000005,7.47294408,-58.66,-29.889999,-0.14,1770467847.937964
-0.7276665600000001,3.59046,7.1091108,-60.060001,-28.559999,2.73,1770467847.945995
-0.20106576,3.36067056,6.74527752,-60.759998,-24.639999,4.13,1770467847.953963
0.08617104,2.9441772,6.448466160000001,-62.299999,-14.77,10.64,1770467847.961963
0.21303396,2.692845,6.10856928,-57.119999,-4.34,15.89,1770467847.97862
-0.10292652000000001,2.3002880400000003,5.929046280000001,-49.77,14.21,24.290001,1770467847.981559
-0.43803612,2.23565976,5.78782152,-46.689999,28.0,26.950001,1770467847.989625
-0.94309416,2.16863784,5.842875240000001,-41.09,40.880001,30.73,1770467847.997791
-1.555866,1.9962957600000002,6.06548376,-40.459999,54.110001,27.719999,1770467848.005627
-2.26917072,1.9603911600000001,6.1755912,-38.360001,65.309998,34.09,1770467848.013557
-3.02077368,1.8359218800000001,6.386231520000001,-33.32,72.870003,32.48,1770467848.021664
-3.7532275200000003,1.40506668,6.484370760000001,-29.469999,76.93,35.77,1770467848.029584
-4.69392804,0.96224328,6.580116360000001,-20.65,79.660004,38.150002,1770467848.037527
-5.59633032,0.42128064000000004,6.56336088,-11.76,80.290001,38.360001,1770467848.045546
-6.352720560000001,-0.11250108000000002,6.233038560000001,0.56,75.529999,47.880001,1770467848.053544
-7.140228120000001,-0.6654319200000001,5.845268880000001,13.65,63.419998,48.580002,1770467848.061595
-8.0306622,-1.40506668,6.03436644,26.32,51.66,55.439999,1770467848.06955
-9.11258748,-1.63006884,6.577722720000001,39.900002,39.549999,44.310001,1770467848.077538
-9.912063240000002,-1.7449635600000002,7.499274120000001,47.880001,25.969999,35.560001,1770467848.085576
-10.69238988,-1.5606532800000001,8.468698320000001,58.52,8.68,31.780001,1770467848.093563
-11.25250164,-1.3165020000000003,9.47642076,60.549999,-9.03,24.92,1770467848.101932
-11.25728892,-0.77553936,10.60143156,58.869999,-31.219999,15.47,1770467848.109629
-10.66605984,-0.33271596000000003,11.85569892,56.84,-52.43,11.83,1770467848.11757
-9.5625918,0.052660080000000005,13.16262636,54.669998,-74.410004,6.02,1770467848.125527
-8.13358872,0.4069188,14.507852040000001,51.799999,-98.07,4.34,1770467848.133538
-6.592084560000001,1.02447792,15.68552292,47.599998,-120.75,-2.8,1770467848.141575
-4.76573724,2.0585304,16.090048080000003,47.389999,-142.449997,-5.46,1770467848.149543
-2.9872627200000004,3.15481752,15.824354040000001,48.650002,-160.509995,-9.17,1770467848.157529
-1.6683670800000001,3.8106748800000005,15.178071240000001,49.560001,-174.509995,-17.08,1770467848.165618
-0.7348474800000001,4.3827548400000005,14.132050560000001,59.290001,-183.820007,-21.49,1770467848.173556
0.68458104,5.41920096,12.93044328,63.209999,-188.369995,-17.08,1770467848.181572
3.16678572,6.62320188,11.690537760000002,66.080002,-195.509995,0.77,1770467848.189603
2.79577152,6.6184146,10.36206756,49.419998,-198.660004,5.11,1770467848.197535
3.1260938400000002,6.36947604,8.5093902,20.02,-192.080002,7.0,1770467848.205536
3.7484402400000003,5.6370222000000005,6.869746800000001,-8.19,-171.429993,7.28,1770467848.213543
4.30137108,5.0146758,5.5604257200000005,-33.459999,-145.179993,7.7,1770467848.221655
4.8471210000000005,4.2128064,4.796854560000001,-55.650002,-109.900002,7.63,1770467848.229551
5.2301034,3.20508396,4.42344672,-68.529999,-72.239998,5.46,1770467848.237534
5.577181200000001,2.26917072,4.330094760000001,-76.089996,-34.439999,-1.47,1770467848.245539
5.756704200000001,1.6875162000000001,4.602969720000001,-72.029999,-1.12,-2.17,1770467848.253535
5.7231932400000005,1.42182216,5.2588270800000005,-67.900002,32.549999,-2.73,1770467848.261556
5.45989284,1.0795316400000001,6.15404844,-62.860001,57.189999,-0.49,1770467848.269607
5.1702623999999995,0.5864418,7.08038712,-57.75,77.419998,5.6,1770467848.277532
4.85430192,0.0047872800000000005,8.08332228,-50.540001,92.400002,6.79,1770467848.285526
4.5718524,-0.43803612,9.03120372,-45.080002,102.059998,13.51,1770467848.293541
4.27982832,-0.7683584400000001,10.00062792,-36.119999,107.519997,16.59,1770467848.301571
3.83221764,-1.0532016,10.76180544,-28.35,109.900002,21.42,1770467848.309598
3.26492496,-1.3165020000000003,11.130426000000002,-18.969999,110.18,26.879999,1770467848.317547
2.65454676,-1.4601204,11.087340480000002,-14.35,108.43,32.060001,1770467848.325547
2.06331768,-1.68033528,10.725900840000001,-6.65,107.099998,39.48,1770467848.333544
1.4720886,-1.88858196,10.35009936,0.91,107.309998,45.990002,1770467848.341622
0.8545294800000001,-2.154276,9.847434960000001,9.03,111.440002,53.41,1770467848.349561
0.17712936,-2.4295446,9.337589640000001,21.0,116.059998,57.119999,1770467848.357537
-0.48590892,-2.40082092,9.19875852,31.780001,123.690002,58.869999,1770467848.36554
-1.2686292,-2.16385056,9.32562144,42.91,132.509995,58.939999,1770467848.373571
-1.82156004,-1.38352392,9.42854796,49.77,139.649994,57.330002,1770467848.381633
-2.42236368,-0.79947576,9.6583374,57.75,145.809998,57.189999,1770467848.389558
-3.45162888,-0.20585304000000001,9.73972116,62.439999,153.720001,53.830002,1770467848.397539
-4.47371316,0.45957888,9.69184836,64.889999,162.190002,46.060001,1770467848.40555
-5.2253161200000005,1.30214016,9.6224328,62.720001,164.009995,38.639999,1770467848.413573
-6.233038560000001,2.1423078,9.70860384,56.77,162.399994,30.799999,1770467848.421576
-7.17852636,2.97290088,9.77562576,45.849998,156.940002,20.719999,1770467848.429609
-7.958853,3.4995016800000003,9.773232120000001,35.0,148.399994,11.62,1770467848.437546
-8.468698320000001,3.6000345600000005,9.83307312,17.01,134.050003,0.0,1770467848.44555
-8.64582768,3.4396606800000002,9.864190440000002,5.39,112.489998,-8.47,1770467848.453615
-8.65061496,3.20987124,9.95993604,-6.44,87.57,-20.65,1770467848.461583
-8.39688912,3.0758274,9.952755119999999,-13.44,60.970001,-22.469999,1770467848.469555
-7.925342040000001,3.0423164400000005,9.98387244,-17.92,34.23,-29.889999,1770467848.477544
-7.23118644,3.21226488,9.902488680000001,-26.74,10.22,-35.279999,1770467848.485644
-6.386231520000001,3.57131088,9.8378604,-34.23,-9.03,-35.279999,1770467848.493546
-5.45989284,3.9064204800000004,9.79477488,-42.0,-26.67,-41.09,1770467848.501575
-4.5598842,3.96386784,9.545836320000001,-50.330002,-38.290001,-44.450001,1770467848.509587
-3.8058876000000006,3.9016332000000005,9.251418600000001,-60.200001,-47.32,-43.959999,1770467848.517541
-3.0375291600000005,3.8034939600000004,9.002480040000002,-67.760002,-52.919998,-42.419998,1770467848.525545
-2.4247573200000003,3.4181179200000003,8.985724560000001,-73.639999,-52.360001,-36.470001,1770467848.533669
-2.0226258,3.0973701600000005,9.10301292,-75.18,-45.43,-31.360001,1770467848.541576
-1.73299536,2.73832416,9.04317192,-77.769997,-33.459999,-21.0,1770467848.549579
-1.7210271600000002,2.48699196,8.696094120000001,-71.959999,-16.1,-16.1,1770467848.557541
-1.9412420400000001,2.19975516,8.20061064,-66.849998,5.32,-5.67,1770467848.565544
-2.5300774800000005,2.10879684,7.815234600000001,-50.540001,28.0,0.0,1770467848.573593
-3.36785148,2.27874528,7.54475328,-39.689999,51.73,6.44,1770467848.581578
-4.40669124,2.5970994,7.453794960000001,-31.08,72.940002,8.96,1770467848.589551
-5.5173402000000005,3.04710372,7.34129388,-23.450001,89.949997,11.41,1770467848.597539
-6.6303828000000005,3.4300861200000003,7.42267764,-22.190001,99.889999,12.32,1770467848.605671
-7.68597804,3.7005674400000004,7.391560320000001,-20.16,101.5,16.379999,1770467848.613562
-8.91870264,3.78913212,7.097142600000001,-16.1,95.410004,18.9,1770467848.621579
-9.96472332,3.6622692,6.6064464,-12.88,77.839996,13.86,1770467848.629618
-10.88866836,3.34152144,6.13011204,-3.92,55.509998,12.39,1770467848.63755
-11.4535674,2.8388570399999997,5.785427880000001,6.79,27.719999,3.64,1770467848.645542
-11.755166039999999,2.1375205200000003,5.60590488,20.299999,-1.75,2.45,1770467848.653673
-11.893997160000001,1.3883112000000002,5.543670240000001,33.110001,-30.450001,-13.93,1770467848.66158
-11.61394128,1.04602068,5.52212748,47.880001,-56.209999,-24.639999,1770467848.669551
-11.00595672,0.79468848,5.19898608,62.439999,-84.0,-32.48,1770467848.677547
-10.39557852,0.81862488,5.11520868,77.980003,-108.43,-44.029999,1770467848.685576
-9.41179248,0.96224328,5.41202004,96.32,-128.660004,-41.369999,1770467848.693636
-8.2460898,1.3069274400000002,6.1229311200000005,105.769997,-149.940002,-43.82,1770467848.701573
-6.81229944,1.61091972,7.0516634400000004,106.330002,-172.059998,-35.700001,1770467848.709596
-5.263614360000001,2.08725408,7.87986288,107.519997,-195.649994,-33.810001,1770467848.717544
-3.53540628,2.0561367600000002,8.82295704,102.900002,-220.5,-28.209999,1770467848.725573
-2.0896477200000003,2.0944350000000003,9.67988016,99.75,-237.440002,-27.860001,1770467848.73356
-0.55532448,1.8454964400000002,10.328556599999999,93.660004,-245.070007,-23.59,1770467848.741589
0.58883544,2.13273324,10.68042168,83.650002,-243.809998,-26.67,1770467848.749548
1.4194285199999999,2.5228965600000004,11.132819640000001,71.610001,-232.399994,-35.700001,1770467848.757546
2.53247112,2.83406976,11.25250164,49.0,-215.529999,-50.400002,1770467848.765567
6.039153720000001,5.06494224,10.45781316,33.18,-213.639999,-45.360001,1770467848.773545
5.79739608,4.959622080000001,10.216055520000001,15.19,-190.889999,-38.080002,1770467848.781575
6.13011204,4.64844888,9.380675160000001,-9.87,-161.630005,-32.619999,1770467848.789581
6.62320188,3.88487772,8.58838032,-32.900002,-130.759995,-38.639999,1770467848.797537
7.05884436,3.20987124,8.02348128,-59.290001,-94.43,-46.619999,1770467848.805708
7.37480484,2.45826828,7.8846501600000005,-74.059998,-52.639999,-49.07,1770467848.813538
7.60220064,1.50320592,8.18146152,-82.669998,-6.58,-55.439999,1770467848.821676
7.61416884,0.43324884,8.72003052,-81.550003,41.299999,-56.279999,1770467848.829578
7.200069120000001,-0.67979376,9.48599532,-76.720001,80.849998,-54.669998,1770467848.837538
6.3551142,-1.60613244,10.204087320000001,-72.449997,112.489998,-52.919998,1770467848.845613
5.325849000000001,-2.0585304,10.82643372,-65.519997,137.759995,-48.23,1770467848.853586
4.01413428,-2.0896477200000003,11.43920556,-56.84,157.919998,-44.59,1770467848.86159
2.6186421600000003,-1.7760808799999999,12.08309472,-56.139999,174.020004,-37.73,1770467848.86955
1.2159691200000002,-1.35480024,12.4349598,-54.32,181.649994,-34.509998,1770467848.877541
-0.14122476,-1.00054152,12.329639640000002,-57.75,183.050003,-26.530001,1770467848.885575
-1.33804476,-0.6582510000000001,11.908359,-51.310001,179.759995,-18.549999,1770467848.893618
-2.3864590800000003,-0.5912290800000001,11.41526916,-46.759998,166.460007,-11.9,1770467848.901573
-3.4612034400000002,-0.40931244,10.967658479999999,-42.419998,152.25,-3.5,1770467848.909602
-4.47371316,-0.33750324,10.711539000000002,-32.689999,135.240005,2.1,1770467848.917542
-5.06972952,-0.23457672000000002,10.45781316,-28.07,118.580002,10.29,1770467848.925545
-5.749523280000001,-0.05505372,10.0054152,-20.719999,102.199997,16.450001,1770467848.933569
-5.9841,0.19388484,9.34477056,-15.12,83.370003,19.25,1770467848.941704
-5.9481954,0.37340784000000005,8.4854538,-7.98,60.759998,30.940001,1770467848.949563
-5.75191692,0.49787712,7.43703948,-2.66,36.540001,37.240002,1770467848.957535
-5.47664832,0.6319209600000001,6.53224356,5.53,12.88,41.509998,1770467848.965546
-4.9308984,0.56968632,6.00564276,16.450001,-11.27,43.540001,1770467848.973868
-4.12663536,0.46436616000000003,5.749523280000001,21.209999,-29.540001,44.869999,1770467848.982222
-3.3439150800000004,0.34707780000000005,5.98649364,32.900002,-40.810001,45.43,1770467848.989645
-2.5803439200000002,0.38776968,6.43410432,39.130001,-48.02,43.959999,1770467848.997726
-2.07289224,0.49548348,6.92480052,46.970001,-47.110001,41.580002,1770467849.005547
-1.4361840000000001,0.7851139200000001,7.37480484,51.310001,-41.02,39.900002,1770467849.013549
-1.11543624,1.4696949600000002,7.99954488,56.91,-33.110001,34.509998,1770467849.021579
-0.8856468000000001,2.09922228,8.77508424,50.889999,-20.02,22.75,1770467849.029554
-0.81862488,2.54683296,9.73493388,43.119999,-5.32,11.06,1770467849.037523
-1.05080796,3.09497652,10.59664428,31.219999,10.78,2.66,1770467849.045617
-1.4696949600000002,3.1596048,11.250108,15.33,28.42,-5.46,1770467849.053583
-2.33858628,3.1835412,11.341066320000001,5.11,43.959999,-9.8,1770467849.061573
-3.3965751600000003,2.99923092,11.429631,-4.76,59.639999,-10.01,1770467849.069597
-4.796854560000001,3.06625284,11.25968256,-8.68,76.790001,-19.459999,1770467849.077547
-5.8309070400000005,2.91305988,10.9748394,-16.24,89.389999,-23.030001,1770467849.085609
-6.74767116,2.88912348,10.55116512,-19.74,93.870003,-30.450001,1770467849.093577
-7.3484748,3.07104012,10.110735360000001,-22.75,89.879997,-32.060001,1770467849.101572
-7.83677736,3.4612034400000002,10.093979880000001,-26.67,77.769997,-31.57,1770467849.109598
-8.033055840000001,3.4995016800000003,10.407546720000001,-25.34,63.07,-30.309999,1770467849.117538
-8.17667424,3.1955093999999997,10.713932640000001,-24.43,46.34,-22.610001,1770467849.125528
-8.370559080000001,2.9274217200000003,10.65648528,-21.0,31.92,-15.82,1770467849.133559
-8.581199400000001,2.76226056,10.2567474,-15.82,16.940001,-9.94,1770467849.141678
-8.696094120000001,2.6880577199999998,9.56019816,-13.93,4.76,-7.77,1770467849.149547
-8.72003052,2.7407178,8.937851760000001,-10.92,-3.92,-9.03,1770467849.157539
-8.58838032,2.7694414800000002,8.4136446,-7.77,-12.46,-8.12,1770467849.165535
-8.45433648,2.79816516,8.11204596,-3.43,-17.15,-14.07,1770467849.173564
-8.25566436,2.6880577199999998,7.9492784400000005,3.22,-20.02,-21.49,1770467849.181621
-7.922948400000001,2.4822046799999997,8.0067258,7.98,-21.139999,-27.65,1770467849.189639
-7.63331796,2.2955007600000004,7.9923639600000005,11.41,-20.370001,-40.459999,1770467849.197534
-7.2886338,1.75214448,7.97800212,14.35,-16.24,-46.060001,1770467849.205757
-6.8577786000000005,1.13458536,7.79608548,19.74,-15.19,-50.189999,1770467849.213553
-6.42452976,0.68458104,7.65246708,22.540001,-20.860001,-52.990002,1770467849.221664
-6.0319728,0.38058875999999997,7.75778724,21.77,-31.15,-54.040001,1770467849.229575
-5.577181200000001,0.34468416,7.803266400000001,26.74,-46.900002,-53.689999,1770467849.237535
-4.94047296,0.30159864000000003,7.42267764,32.130001,-66.779999,-50.75,1770467849.245537
-4.385148480000001,0.42846156,6.68304288,46.200001,-85.75,-44.380001,1770467849.253561
-3.9255696,0.74442204,5.737555080000001,56.98,-101.989998,-40.459999,1770467849.261576
-3.4899271200000004,0.9646369200000001,4.66999164,73.639999,-118.720001,-36.75,1770467849.269589
-2.9944436400000005,1.077138,3.78913212,91.0,-130.759995,-36.189999,1770467849.27753
-2.33140536,1.3667684400000002,3.54019356,105.209999,-141.399994,-43.68,1770467849.285528
-1.4936313600000002,2.0704986,4.11466716,112.839996,-150.5,-49.07,1770467849.293536
-0.52181352,3.41572428,5.09127228,114.660004,-152.389999,-58.73,1770467849.301582
-0.08377740000000002,4.2965838,6.30006048,104.440002,-146.089996,-66.849998,1770467849.309602
0.9574560000000001,5.507765640000001,7.0516634400000004,84.559998,-135.520004,-72.239998,1770467849.317651
2.13512688,6.268943160000001,7.815234600000001,62.23,-126.559998,-68.110001,1770467849.325537
2.1303396,5.577181200000001,8.916309,31.08,-111.089996,-65.940002,1770467849.33354
2.55162024,4.287009240000001,10.053288,-1.75,-93.449997,-64.610001,1770467849.341576
