acc_x,acc_y,acc_z,gyro_x,gyro_y,gyro_z,timestamp
3.407379382,4.149154388,8.353343697,-0.304210889,1.57847581,0.345749707,1756823214
2.890529701,4.053441484,9.219545478,-0.475253155,1.659109952,0.477696634,1756823214
2.285145583,3.809373579,9.767501853,-0.652404092,1.743409372,0.56443948,1756823214
1.562513158,3.562912851,9.645467901,-0.797789984,1.828930541,0.594982742,1756823214
0.897308475,3.127419138,9.20279572,-0.797789984,1.909564804,0.614530412,1756823214
0.416351132,2.840280426,8.97308475,-0.79534654,1.921782057,0.618195586,1756823214
0.019142581,2.612962279,9.437292334,-0.796568253,1.921782057,0.643851944,1756823214
-0.332602341,2.222932195,10.35135057,-0.762359817,1.843591237,0.598647916,1756823214
-0.734596538,1.557727513,11.49272695,-0.764803278,1.820378462,0.577878533,1756823214
-1.220339526,0.748953474,12.39960671,-0.648738848,1.733635581,0.575435072,1756823214
-1.801795418,-0.215354034,12.80160091,-0.536339679,1.638340621,0.423940493,1756823214
-2.065005904,-1.270588801,12.58385405,-0.389732022,1.456302763,0.477696634,1756823214
-3.385843979,-2.445464697,12.19621679,-0.182037841,1.375668516,0.43493605,1756823214
-3.098705267,-3.345165995,11.8684001,0.013439035,1.192408945,0.49357913,1756823214
-3.17527559,-3.802195111,11.65543888,0.263893783,0.923628205,0.510683339,1756823214
-3.237488978,-3.907479306,11.81815082,0.442266432,0.593761012,0.472809694,1756823214
-3.196810994,-3.914657774,12.04307615,0.549778714,0.262672052,0.489913921,1756823214
-3.029313412,-3.873979789,12.0382905,0.62308256,-0.053756141,0.427605667,1756823214
-2.775674216,-3.665804223,11.75115179,0.609643508,-0.318871654,0.444709893,1756823214
-2.452643165,-3.493520996,11.27976574,0.588874125,-0.532674488,0.425162223,1756823214
-2.148754695,-3.431307608,10.97348444,0.497244304,-0.686612528,0.442266432,1756823214
-1.871187273,-3.450450189,10.97348444,0.397062405,-0.79534654,0.464257581,1756823214
-1.543370577,-3.601198013,11.10030404,0.379958178,-0.823446341,0.453261989,1756823214
-1.239482107,-3.799802289,11.07637582,0.290771853,-0.808785575,0.456927198,1756823214
-1.004985492,-3.952942935,10.92084235,0.333532438,-0.73670346,0.474031425,1756823214
-0.806381216,-4.0127635,10.71027396,0.328645498,-0.651182361,0.476474868,1756823214
-0.677168796,-3.964907048,10.439885,0.290771853,-0.552222158,0.503352956,1756823215
-0.545563553,-3.756731482,10.15513911,0.284663184,-0.497244304,0.477696634,1756823215
-0.595812827,-3.601198013,10.01874823,0.20402899,-0.41783184,0.483805251,1756823215
-0.681954441,-3.237488978,9.772287498,0.145385927,-0.318871654,0.456927198,1756823215
-0.746560651,-2.998206718,9.530612416,0.059864793,-0.186924763,0.405614518,1756823215
-0.911665411,-2.691925425,9.363114834,-0.065973446,-0.017104227,0.370184317,1756823215
-1.103091219,-2.3928226,9.291330156,-0.134390352,0.140499005,0.287106679,1756823215
-1.339980656,-1.983649935,9.166903381,-0.164933614,0.252898209,0.243124365,1756823215
-1.596012674,-1.5457634,8.968299105,-0.147829388,0.327423768,0.163711884,1756823215
-1.85922316,-1.052841944,8.616554183,-0.056199602,0.30054568,0.10262536,1756823215
-2.041077678,-0.440279358,7.89631458,0.069638637,0.210137642,0.012217305,1756823215
-2.182254211,0.323031051,6.999006105,0.191811685,0.006108652,-0.061086524,1756823215
-2.179861389,1.375872995,6.168696663,0.186924763,-0.151494579,-0.122173048,1756823215
-1.976471468,2.266003002,5.833701499,0.131946891,-0.262672052,-0.125838239,1756823215
-1.591227029,3.225524865,6.077769404,0.063529985,-0.284663184,-0.161268423,1756823215
-1.241874929,3.929014709,6.989434815,-0.065973446,-0.207694181,-0.074525559,1756823215
-0.985842911,4.156332856,8.099704501,-0.206472451,-0.122173048,-0.10384709,1756823215
-0.636490812,3.998406565,8.592625957,-0.411723171,-0.073303829,-0.151494579,1756823215
-0.334995164,3.522234867,8.518448456,-0.553443888,-0.12950343,-0.141720735,1756823215
-0.081355968,3.086741154,8.434699665,-0.681725623,-0.252898209,-0.150272849,1756823215
0.165104759,2.88095841,8.786444587,-0.722042694,-0.367740873,-0.07696902,1756823215
0.373280326,2.653640263,9.525826771,-0.656069266,-0.447153372,-0.095294977,1756823215
0.631705166,2.414358003,10.17667452,-0.686612528,-0.470366251,-0.064751715,1756823215
0.954736217,2.0434705,10.96152033,-0.626747734,-0.399505848,-0.037873645,1756823215
1.272981623,1.323230898,11.60518961,-0.593761012,-0.335975881,-0.02565634,1756823215
1.612762432,0.516849682,11.90907808,-0.461814103,-0.254119939,-0.02443461,1756823215
1.892722677,-0.253639196,11.9425776,-0.316428176,-0.211359372,-0.063529985,1756823215
2.091326952,-1.060020412,11.93539913,-0.124616509,-0.197920337,-0.073303829,1756823215
2.292324051,-1.861615983,12.00957663,0.118507856,-0.191811685,-0.037873645,1756823215
2.285145583,-2.191825502,12.14836034,0.277332818,-0.233350521,-0.109955743,1756823215
2.287538406,-2.476571391,12.40439236,0.368962586,-0.228463599,-0.151494579,1756823215
2.177468566,-2.811566555,12.81356502,0.409279727,-0.240680904,-0.188146493,1756823215
2.105683888,-3.203989461,12.98345543,0.405614518,-0.174707458,-0.246789556,1756823215
1.981257113,-3.503092286,12.84706454,0.438601224,-0.112399204,-0.226020138,1756823215
1.751546143,-3.550948738,12.22493066,0.427605667,-0.10262536,-0.278554549,1756823215
1.414158157,-3.57966261,11.44247767,0.378736465,-0.167377075,-0.28221974,1756823215
1.134197912,-4.005585032,10.82752227,0.361632204,-0.261450322,-0.298102236,1756823215
1.060020412,-4.639683021,10.40159984,0.339641055,-0.379958178,-0.387288578,1756823215
1.198804123,-5.309673349,10.16710323,0.445931606,-0.538783158,-0.432492606,1756823215
1.471585899,-5.704489078,10.19103145,0.5131268,-0.695164676,-0.480140077,1756823215
1.899901144,-5.769095289,10.36331468,0.572991628,-0.885754595,-0.510683339,1756823215
2.385644132,-5.596812061,10.6408821,0.58276542,-1.05190994,-0.553443888,1756823215
2.878565588,-5.309673349,10.73420218,0.518013722,-1.213178398,-0.543670062,1756823215
3.393022447,-4.859822701,10.62891799,0.431270841,-1.390329352,-0.485027017,1756823215
3.842873096,-4.352544309,10.47338452,0.376292969,-1.566258436,-0.481361808,1756823215
4.247260115,-3.687339627,10.25085202,0.234572251,-1.670105596,-0.353080108,1756823215
4.558327053,-2.957528734,9.954142016,0.171042267,-1.744631103,-0.278554549,1756823215
4.754538506,-2.299502519,9.525826771,0.068416907,-1.729970407,-0.223576677,1756823215
4.89571504,-1.682154288,9.061619186,0.023212879,-1.631010134,-0.139277274,1756823215
5.103890606,-1.117448154,8.793623055,0.003665191,-1.47340692,-0.12950343,1756823215
5.371886737,-0.579063069,8.683553215,-0.009773844,-1.240056486,-0.030543262,1756823215
5.536991496,-0.122033953,8.626125473,0.009773844,-0.94806285,-0.031764992,1756823215
5.603990529,0.46899323,8.506484343,0.023212879,-0.664621414,0.07574729,1756823215
5.38385085,1.081555815,8.054240872,0.118507856,-0.372627795,0.092851516,1756823215
5.032105928,1.854437515,7.302894575,0.184481302,-0.162490153,0.120951317,1756823215
4.517649069,2.924029217,6.398407632,0.20525072,0.091629786,0.167377075,1756823215
3.94815729,4.115654872,5.706881901,0.299323967,0.288328392,0.092851516,1756823215
3.519842045,4.843072942,5.218746091,0.194255146,0.521678896,0.105068821,1756823215
3.139383251,4.996213589,4.929214556,0.042760567,0.7550294,0.098960169,1756823215
2.952743088,4.677968183,5.249852784,-0.147829388,0.983492999,0.243124365,1756823215
2.837887604,4.201796486,6.080162227,-0.254119939,1.152091874,0.313984732,1756823215
2.574677118,3.921836241,7.030112799,-0.392175465,1.304808184,0.409279727,1756823215
2.129612114,3.866801322,7.898707403,-0.477696634,1.464854841,0.481361808,1756823215
1.672582997,3.854837209,8.595018779,-0.54611354,1.622458055,0.520457183,1756823215
1.246660575,3.77348124,9.064012009,-0.570548115,1.771509191,0.565661211,1756823215
0.909272588,3.5892339,9.525826771,-0.632856352,1.853365168,0.585208881,1756823215
0.528813795,3.244667446,10.24606637,-0.70005158,1.861917246,0.610865238,1756823215
0.136390888,2.610569457,11.26780162,-0.772133696,1.842369523,0.585208881,1756823215
-0.339780809,1.78504566,12.44267752,-0.739146903,1.809382801,0.58398715,1756823215
-1.024128073,0.571884601,13.22752333,-0.665843145,1.771509191,0.577878533,1756823215
-1.758724611,-0.629312344,13.00259801,-0.516792009,1.717753015,0.572991628,1756823215
-2.44785752,-1.85922316,12.38524978,-0.332310707,1.633453577,0.548556984,1756823215
-2.88095841,-2.730210587,12.07418284,-0.167377075,1.485624312,0.569326385,1756823215
-3.129811961,-3.395415269,12.25125171,0.042760567,1.284038731,0.58276542,1756823215
-3.177668413,-4.103690759,12.66521002,0.200363798,0.996932051,0.590095838,1756823215
-3.22073922,-4.814359071,13.11745349,0.324980324,0.653625822,0.624304273,1756823215
-3.194418171,-5.307280527,13.17966688,0.537561392,0.28221974,0.521678896,1756823215
-3.034099057,-5.398207786,12.87577841,0.632856352,-0.12705997,0.496022573,1756823215
-2.746960345,-5.240281494,12.25603736,0.728151381,-0.471587964,0.41783184,1756823215
-2.438286229,-5.041677218,11.67458147,0.708603641,-0.762359817,0.368962586,1756823215
-2.000399694,-4.950749959,11.45683461,0.675616936,-0.962723615,0.405614518,1756823215
-1.574477271,-4.807180603,11.46401308,0.685390797,-1.105666046,0.333532438,1756823215
-1.100698396,-4.67557536,11.44247767,0.609643508,-1.171639475,0.362853969,1756823215
-0.746560651,-4.400400761,11.22473082,0.537561392,-1.150870144,0.284663184,1756823215
-0.418743955,-4.141975921,10.88495001,0.432492606,-1.094670524,0.289550123,1756823215
-0.160319114,-3.945764467,10.47817017,0.327423768,-0.999375495,0.305432619,1756823215
0.074177501,-3.749553014,10.18385299,0.244346095,-0.901637092,0.301767445,1756823215
0.251246373,-3.570091319,10.02114105,0.161268423,-0.751364226,0.307876063,1756823215
0.464207584,-3.311666478,9.93978508,0.196698607,-0.598647916,0.35918876,1756823215
0.593420005,-2.87138712,9.781858789,0.135612083,-0.404392788,0.389732022,1756823215
0.538385085,-2.493321149,9.499505722,0.106290551,-0.228463599,0.35918876,1756823215
0.492921456,-2.000399694,9.214759833,0.073303829,-0.081855942,0.365297412,1756823215
0.308674115,-1.734796385,9.145367977,-0.006108652,0.111177473,0.296880506,1756823215
0.133998066,-1.160518961,9.075976122,-0.029321531,0.271224166,0.177150919,1756823215
-0.136390888,-0.715453957,9.044869428,-0.008552113,0.41661011,0.131946891,1756823215
-0.497707101,-0.181854518,8.860622088,0.10262536,0.502131226,0.028099801,1756823215
-0.89252283,0.373280326,8.3748791,0.246789556,0.476474868,-0.063529985,1756823215
-1.241874929,1.064806057,7.475177802,0.388510291,0.41783184,-0.188146493,1756823215
-1.593619852,1.959721709,6.711867393,0.442266432,0.284663184,-0.241902634,1756823215
-1.720439449,3.141776074,6.16630384,0.388510291,0.139277274,-0.305432619,1756823215
-1.588834206,4.082155356,6.132804324,0.30665435,0.041538836,-0.2565634,1756823215
-1.287338559,4.740181571,6.374479406,0.174707458,-0.017104227,-0.197920337,1756823215
-0.794417103,4.79521649,6.601797553,-0.042760567,-0.059864793,-0.161268423,1756823215
-0.356530567,4.400400761,6.932007072,-0.252898209,-0.164933614,-0.084299403,1756823215
0.019142581,3.749553014,7.542176835,-0.447153372,-0.302989176,-0.109955743,1756823215
0.370887503,3.254238736,8.396414503,-0.612086969,-0.411723171,-0.070860368,1756823215
0.7728817,3.04606317,9.150153622,-0.69882985,-0.476474868,-0.080634211,1756823215
1.241874929,2.93599333,9.693324353,-0.81489421,-0.481361808,-0.05009095,1756823215
1.689332756,2.883351233,10.34177928,-0.803898671,-0.460592372,-0.020769418,1756823215
2.031506387,2.63210486,10.96152033,-0.780685774,-0.388510291,0.007330383,1756823215
2.45742881,2.060220259,11.55494034,-0.701273293,-0.266337244,0.041538836,1756823215
2.770888571,1.356730414,11.80140106,-0.620639099,-0.106290551,0.032986723,1756823215
2.909672282,0.586241537,11.73918768,-0.498466017,0.065973446,0.057421332,1756823215
3.002992363,0,11.667403,-0.294437062,0.206472451,0.072082098,1756823215
2.86181583,-0.655633392,11.84207905,-0.145385927,0.268780705,0.080634211,1756823215
2.866601475,-1.256231865,12.23210913,-0.021991149,0.338419325,0.02687807,1756823215
2.555534537,-1.710868159,12.68195978,0.106290551,0.376292969,0.010995574,1756823215
2.266003002,-2.182254211,12.94517027,0.10262536,0.414166631,-0.054977871,1756823215
1.993221226,-2.8163522,12.86859994,0.10262536,0.456927198,-0.12705997,1756823215
1.646261949,-3.357130108,12.47617704,0.138055544,0.403171057,-0.147829388,1756823215
1.282552914,-4.010370678,11.95214889,0.149051118,0.328645498,-0.188146493,1756823215
0.954736217,-4.685146651,11.50947671,0.207694181,0.20402899,-0.246789556,1756823215
0.768096055,-5.405386253,11.20080259,0.335975881,0.05131268,-0.334754151,1756823215
0.705882667,-5.934200048,10.80359404,0.5131268,-0.218689755,-0.38362337,1756823215
0.763310409,-6.149554082,10.59541847,0.649960648,-0.427605667,-0.467922755,1756823215
1.043270654,-5.9820565,10.66481033,0.735481729,-0.725707938,-0.526565835,1756823216
1.383051463,-5.694917788,10.83230791,0.71837752,-1.015257991,-0.532674488,1756823216
1.981257113,-5.067998267,10.80120122,0.62308256,-1.297477696,-0.618195586,1756823216
2.478964214,-4.201796486,10.5140625,0.547335271,-1.502728451,-0.519235452,1756823216
3.079562686,-4.139583098,10.35135057,0.412944901,-1.700648858,-0.585208881,1756823216
3.622733416,-3.730410433,10.00439129,0.239459173,-1.868025881,-0.524122392,1756823216
4.168296969,-3.053241638,9.671788949,0.200363798,-2.014633556,-0.469144485,1756823216
4.651647134,-2.560320182,9.291330156,0.05253441,-2.05739407,-0.405614518,1756823216
5.070391089,-2.108076711,8.757730716,0.012217305,-2.008524938,-0.289550123,1756823216
5.386243673,-1.531406464,8.36530781,-0.015882496,-1.896125682,-0.25534167,1756823216
5.749952708,-1.160518961,8.137989663,-0.07574729,-1.677435962,-0.096516708,1756823216
5.977270855,-0.715453957,8.008777242,-0.079412481,-1.381777134,0.037873645,1756823216
6.130411501,-0.150747824,7.800601676,-0.007330383,-1.038470905,0.124616509,1756823216
6.159125372,0.35892339,7.539784013,0.030543262,-0.714712346,0.307876063,1756823216
5.979663677,1.033699363,7.156932397,0.116064395,-0.318871654,0.344527994,1756823216
5.6327044,1.883151386,6.707081748,0.17837265,0.031764992,0.460592372,1756823216
5.168496816,3.026920589,6.309873196,0.260228591,0.323758559,0.419053553,1756823216
4.706682054,4.170689792,5.958128274,0.213802833,0.596204472,0.437379493,1756823216
4.211367776,4.869393991,5.962913919,0.171042267,0.83322022,0.450818546,1756823216
3.77348124,5.26420972,6.616154489,0.015882496,1.042136079,0.544891775,1756823216
3.259024381,5.532205851,7.690531836,-0.20525072,1.247386834,0.532674488,1756823216
2.586641231,5.699703433,8.487341762,-0.367740873,1.445307119,0.50701813,1756823216
1.725225095,5.644668513,8.740980958,-0.576656802,1.610240803,0.444709893,1756823216
0.861416136,5.398207786,8.085347565,-0.692721163,1.780061269,0.427605667,1756823216
0.198604276,4.869393991,7.314858688,-0.791681366,1.869247594,0.398284135,1756823216
-0.179461695,4.041477371,7.034898444,-0.839328837,1.941329779,0.379958178,1756823216
-0.315852583,3.225524865,7.709674417,-0.784350948,1.912008248,0.412944901,1756823216
-0.36849468,2.586641231,9.193224429,-0.797789984,1.881464986,0.411723171,1756823216
-0.54317073,1.840080579,10.97348444,-0.704938467,1.846034697,0.419053553,1756823216
-0.923629524,0.71784678,12.27039429,-0.669508319,1.797165548,0.366519143,1756823216
-1.442872028,-0.887737185,12.71067365,-0.616973856,1.744631103,0.415388345,1756823216
-1.897508322,-2.426322116,12.60778228,-0.425162223,1.654223048,0.375071256,1756823216
-2.254038889,-3.65384011,12.45703446,-0.184481302,1.524719652,0.384845083,1756823216
-2.969492847,-4.637290199,12.54078325,0.116064395,1.350012142,0.408057962,1756823216
-2.799602442,-5.111069074,12.78485115,0.337197611,1.087340107,0.41050144,1756823216
-2.758924458,-5.551348432,13.20598793,0.51190507,0.81367248,0.470366251,1756823216
-2.536391956,-5.790630692,13.38066398,0.668286588,0.500909513,0.481361808,1756823216
-2.352144616,-5.86241537,13.33520035,0.643851944,0.166155345,0.48747046,1756823216
-2.136790582,-6.001199081,13.06002575,0.634078152,-0.085521133,0.502131226,1756823216
-2.021935097,-6.424728681,12.70349518,0.558330828,-0.30054568,0.516792009,1756823216
-1.816152353,-6.369693761,12.39482107,0.530231009,-0.401949344,0.478918364,1756823216
-1.600798319,-6.242874163,12.15793163,0.544891775,-0.467922755,0.427605667,1756823216
-1.409372511,-6.03709142,11.85165034,0.469144485,-0.454483755,0.398284135,1756823216
-1.411765334,-5.594419239,11.51665517,0.437379493,-0.450818546,0.397062405,1756823216
-1.359123237,-5.15413988,11.22951646,0.296880506,-0.409279727,0.395840674,1756823216
-1.356730414,-4.934000201,10.91366388,0.157603231,-0.386066848,0.431270841,1756823216
-1.421336624,-4.673182538,10.66002468,0.056199602,-0.329867229,0.43493605,1756823216
-1.497906948,-4.41715052,10.28913718,-0.030543262,-0.270002435,0.450818546,1756823216
-1.641476304,-4.230510357,9.949356371,-0.046425758,-0.207694181,0.521678896,1756823216
-1.758724611,-3.76390995,9.597611449,-0.053756141,-0.162490153,0.489913921,1756823216
-1.871187273,-3.254238736,9.186045961,-0.062308254,-0.139277274,0.536339679,1756823216
-1.974078645,-2.605783811,8.987441686,0,-0.175929189,0.50701813,1756823216
-2.074577194,-1.947757596,9.116654106,0.021991149,-0.208915911,0.469144485,1756823216
-2.108076711,-1.311266785,9.375078947,0.054977871,-0.266337244,0.386066848,1756823216
-2.160718808,-0.674775973,9.363114834,0.105068821,-0.365297412,0.333532438,1756823216
-2.115255178,-0.014356936,8.999405799,0.162490153,-0.497244304,0.284663184,1756823216
-2.067398726,0.660419038,8.415557084,0.30665435,-0.713490616,0.208915911,1756823216
-1.983649935,1.476371544,7.848458128,0.428827397,-0.900415361,0.216246294,1756823216
-1.830509289,2.553141714,7.403393124,0.579100246,-1.033584,0.210137642,1756823216
-1.787438482,3.912264951,7.015755863,0.646295405,-1.082453202,0.239459173,1756823216
-1.73001074,5.170889639,6.52522723,0.585208881,-1.045801253,0.251676478,1756823216
-1.562513158,5.965306742,6.336194245,0.406836231,-0.987158242,0.163711884,1756823216
-1.174875897,5.900700532,6.486942069,0.106290551,-0.957836711,0.085521133,1756823216
-0.576670247,5.883950773,6.338587067,-0.122173048,-0.946841119,-0.002443461,1756823216
0.12921242,5.479563754,6.458228197,-0.30665435,-1.003040739,0.002443461,1756823216
0.815952507,5.151747058,7.051648202,-0.372627795,-1.061683819,0.05253441,1756823216
1.586441384,4.835894475,8.133204017,-0.405614518,-1.134987595,0.069638637,1756823216
2.289931228,4.264009873,9.248259349,-0.432492606,-1.133765865,0.131946891,1756823216
2.821137845,3.684946804,9.934999435,-0.382401639,-1.075122784,0.096516708,1756823216
3.237488978,3.12024067,10.25324484,-0.333532438,-0.973719207,0.069638637,1756823216
3.622733416,2.562713005,10.48774146,-0.343306264,-0.861319951,-0.002443461,1756823216
4.06779842,1.90468679,10.71266678,-0.320093385,-0.703716754,-0.080634211,1756823216
4.584648102,0.945164927,10.81795097,-0.339641055,-0.555887367,-0.036651914,1756823216
4.821537539,-0.215354034,11.07637582,-0.349414916,-0.401949344,-0.014660766,1756823216
5.010570524,-1.330409366,11.12423227,-0.313984732,-0.223576677,-0.156381501,1756823216
5.103890606,-2.593819698,11.31087243,-0.289550123,0.05253441,-0.166155345,1756823216
5.125426009,-3.723231966,11.56690445,-0.145385927,0.337197611,-0.307876063,1756823216
4.979463831,-4.608576328,11.7942226,-0.042760567,0.646295405,-0.284663184,1756823216
4.625326086,-5.496313512,11.99043405,0.045204028,0.916297857,-0.329867229,1756823216
4.180261082,-6.336194245,12.04546897,0.10140363,1.091005281,-0.304210889,1756823216
3.711267853,-7.18803909,11.97368429,0.068416907,1.169196031,-0.272445896,1756823216
3.249453091,-8.018348533,11.7846513,0.131946891,1.12887896,-0.28221974,1756823216
2.866601475,-8.815158458,11.50708388,0.151494579,1.021366678,-0.278554549,1756823216
2.553141714,-9.420542576,11.22712364,0.239459173,0.844215742,-0.317649941,1756823216
2.426322116,-9.609575562,11.00459114,0.312763002,0.643851944,-0.354301821,1756823216
2.404786713,-9.236295236,10.87537872,0.392175465,0.439822989,-0.386066848,1756823216
2.443071875,-8.338986761,10.81316533,0.392175465,0.212581103,-0.386066848,1756823216
2.691925425,-7.223931429,10.7892371,0.304210889,0.015882496,-0.395840674,1756823216
2.828316313,-6.178267953,10.64566775,0.237015712,-0.138055544,-0.390953752,1756823216
2.974278492,-5.335994398,10.33938645,0.172263997,-0.223576677,-0.298102236,1756823216
3.069991396,-4.539184472,10.13121089,0.185703032,-0.313984732,-0.22968533,1756823216
3.12024067,-3.680161159,9.906285564,0.208915911,-0.316428176,-0.233350521,1756823216
3.153740187,-2.873779943,9.647860723,0.221133216,-0.349414916,-0.20402899,1756823216
3.208775107,-2.050648968,9.489934432,0.320093385,-0.287106679,-0.149051118,1756823216
3.192025348,-1.280160091,9.432506689,0.412944901,-0.248011287,-0.10262536,1756823216
3.177668413,-0.466600407,9.44207798,0.455705485,-0.168598806,0.008552113,1756823216
3.144168896,0.406779842,9.621539675,0.500909513,-0.1282817,0.05009095,1756823216
2.993421073,1.26101751,9.765109031,0.441044702,-0.07696902,0.147829388,1756823216
2.842673249,2.048256146,9.901499919,0.35918876,-0.010995574,0.266337244,1756823216
2.624926392,2.603390989,9.894321451,0.23090706,0.05131268,0.335975881,1756823216
2.464607278,2.969492847,9.343972253,0.147829388,0.10140363,0.394618961,1756823216
2.210968082,3.163311477,8.547162327,0.063529985,0.119729587,0.408057962,1756823216
2.014756629,3.369094221,7.580461997,0.007330383,0.07819075,0.349414916,1756823216
1.847259047,3.627519062,6.474977956,-0.02565634,-0.037873645,0.287106679,1756823216
1.84965187,4.079762533,5.903093354,-0.023212879,-0.161268423,0.218689755,1756823216
2.0434705,4.7856452,6.766902313,-0.116064395,-0.270002435,0.193033415,1756823216
2.292324051,5.587240771,8.585447489,-0.254119939,-0.289550123,0.211359372,1756823216
2.519642198,6.168696663,10.05464057,-0.49357913,-0.223576677,0.114842665,1756823216
2.636890505,6.501299004,10.42792089,-0.65973444,-0.094073247,0.219911486,1756823216
2.44785752,6.534798521,9.722038224,-0.770911896,0.094073247,0.081855942,1756823216
2.136790582,6.35055118,9.011369912,-0.827111515,0.305432619,0.07819075,1756823216
1.710868159,5.905486177,8.592625957,-0.919963031,0.531452775,0.004886922,1756823216
1.32562372,4.890929394,8.343772406,-0.981049555,0.79412481,-0.080634211,1756823216
1.098305573,3.357130108,8.161917889,-0.949284563,1.066570723,-0.118507856,1756823216
0.866201781,1.708475336,7.728816998,-0.839328837,1.30114301,-0.276111088,1756823216
0.655633392,0.299102825,7.432106996,-0.668286588,1.486846025,-0.217468025,1756823216
0.409172665,-0.746560651,7.635496917,-0.448375102,1.612684264,-0.294437062,1756823216
0.026321049,-1.454836141,8.432306842,-0.30665435,1.704314049,-0.207694181,1756823216
-0.4235296,-2.007578161,9.568897577,-0.147829388,1.787391757,-0.20525072,1756823216
-0.863808959,-2.57706994,10.72941654,-0.048869219,1.872912785,-0.221133216,1756823216
-1.383051463,-3.311666478,11.55733316,-0.008552113,1.882686716,-0.237015712,1756823216
-1.921436548,-3.766302772,11.80857953,0.100181899,1.804495896,-0.290771853,1756823216
-2.321037922,-4.041477371,11.62193937,0.116064395,1.629788403,-0.344527994,1756823216
-2.711068006,-4.393222294,11.2438734,0.237015712,1.37933369,-0.405614518,1756823216
-2.854637362,-4.843072942,10.79402275,0.350636647,1.100779159,-0.360410491,1756823216
-2.967100024,-5.434100125,10.49731275,0.533896218,0.790459636,-0.388510291,1756823217
-2.988635427,-6.044269888,10.26760178,0.73792519,0.494800843,-0.339641055,1756823217
-2.919243572,-6.206981824,10.21495968,0.929736893,0.208915911,-0.333532438,1756823217
-2.75174599,-6.017948839,10.40877831,1.067792436,-0.046425758,-0.304210889,1756823217
-2.428714939,-5.364708269,10.74377347,1.158200509,-0.290771853,-0.310319558,1756823217
-1.995614048,-4.500899311,11.12901791,1.156978779,-0.467922755,-0.217468025,1756823217
-1.514656706,-3.69930374,11.52383364,1.072679341,-0.585208881,-0.210137642,1756823217
-0.959521863,-3.098705267,11.78704413,0.988379973,-0.668286588,-0.161268423,1756823217
-0.375673148,-2.550748892,11.92822066,0.836885394,-0.709825372,-0.070860368,1756823217
0.06460621,-2.053041791,11.91625655,0.70005158,-0.750142513,-0.064751715,1756823217
0.411565487,-1.68454711,11.83968622,0.535117949,-0.720820964,0.018325957,1756823217
0.626919521,-1.38065864,11.72961639,0.455705485,-0.638965057,0.05009095,1756823217
0.679561618,-1.069591702,11.5932255,0.324980324,-0.464257581,0.065973446,1756823217
0.583848714,-0.698704199,11.29172985,0.333532438,-0.265115513,0.014660766,1756823217
0.409172665,-0.050249275,10.89930694,0.28221974,-0.047647489,-0.079412481,1756823217
0.193818631,0.502492746,10.439885,0.201585529,0.117286126,-0.164933614,1756823217
0.031106694,0.959521863,10.11685395,0.134390352,0.22968533,-0.28221974,1756823217
-0.126819598,1.335195011,9.98524871,0.073303829,0.317649941,-0.364075699,1756823217
-0.342173632,1.531406464,9.997212823,0.063529985,0.373849526,-0.419053553,1756823217
-0.605384118,1.548156222,10.04506927,0.032986723,0.367740873,-0.461814103,1756823217
-0.880558717,1.698904046,9.923035322,-0.007330383,0.353080108,-0.514348513,1756823217
-1.122233799,1.758724611,9.712466933,-0.003665191,0.294437062,-0.460592372,1756823217
-1.359123237,1.983649935,9.480363141,-0.056199602,0.222354947,-0.465479312,1756823217
-1.540977754,2.227717841,9.08315459,-0.065973446,0.150272849,-0.412944901,1756823217
-1.725225095,2.780459861,8.25523797,-0.092851516,0.084299403,-0.356745317,1756823217
-1.820937999,3.261417204,7.566105061,-0.164933614,0.015882496,-0.265115513,1756823217
-1.892722677,3.759124305,7.204788849,-0.196698607,-0.034208453,-0.208915911,1756823217
-1.885544209,4.175475437,7.420142883,-0.327423768,-0.097738438,-0.116064395,1756823217
-1.722832272,4.632504554,8.035098291,-0.401949344,-0.158824962,-0.059864793,1756823217
-1.481157189,5.027320283,8.444270955,-0.543670062,-0.243124365,-0.047647489,1756823217
-1.225125171,5.120640364,8.633303941,-0.689055989,-0.384845083,0.040317106,1756823217
-0.981057266,5.111069074,8.568697731,-0.748920782,-0.56321775,0.007330383,1756823217
-0.701097022,4.91485762,8.391628858,-0.847880986,-0.747699052,-0.003665191,1756823217
-0.270388954,4.472185439,8.027919823,-0.834441933,-0.878424247,-0.02443461,1756823217
0.205782744,3.692125272,7.719245708,-0.808785575,-0.973719207,-0.054977871,1756823217
0.703489844,2.749353167,7.71206724,-0.7550294,-0.973719207,-0.100181899,1756823217
1.249053397,1.615155255,8.085347565,-0.662177901,-0.888198039,-0.193033415,1756823217
1.777867192,0.746560651,8.731409667,-0.648738848,-0.723264425,-0.237015712,1756823217
2.292324051,0.062213388,9.547362174,-0.593761012,-0.472809694,-0.270002435,1756823217
2.600998166,-0.526420972,10.38485008,-0.5131268,-0.171042267,-0.288328392,1756823217
2.69671107,-1.13180509,11.13380356,-0.531452775,0.094073247,-0.309097793,1756823217
2.557927359,-1.92382937,11.50469106,-0.43493605,0.360410491,-0.393397231,1756823217
2.182254211,-2.813959378,11.27498009,-0.378736465,0.591317568,-0.448375102,1756823217
1.682154288,-3.694518094,10.80359404,-0.188146493,0.753807686,-0.49357913,1756823217
1.172483074,-4.388436648,10.63848928,-0.062308254,0.818559454,-0.522900626,1756823217
0.703489844,-5.029713105,10.70070267,0.057421332,0.819781167,-0.510683339,1756823217
0.284745889,-5.450849883,10.90409259,0.122173048,0.774577139,-0.522900626,1756823217
-0.148355001,-5.869593838,11.0955184,0.086742864,0.647517118,-0.514348513,1756823217
-0.576670247,-6.317051664,11.27498009,0.098960169,0.48747046,-0.527787566,1756823217
-0.758524764,-6.742974087,11.47597719,0.139277274,0.285884914,-0.579100246,1756823217
-0.684347264,-6.984649169,11.69372405,0.185703032,0.014660766,-0.627969465,1756823217
-0.406779842,-6.807580297,11.95454171,0.28099801,-0.339641055,-0.69882985,1756823217
0.014356936,-6.23091005,12.32064357,0.310319558,-0.658512727,-0.7550294,1756823217
0.490528633,-5.50349198,12.52403349,0.296880506,-0.976162651,-0.729373112,1756823217
0.926022346,-4.871786814,12.28475123,0.277332818,-1.26326926,-0.73792519,1756823217
1.383051463,-4.201796486,11.79182977,0.20402899,-1.485624312,-0.731816555,1756823217
1.911865257,-3.426521963,11.27976574,0.267558974,-1.71286611,-0.70005158,1756823217
2.366501551,-2.648854618,10.90648541,0.246789556,-1.872912785,-0.696386406,1756823217
2.732603409,-1.823330821,10.439885,0.304210889,-1.979203407,-0.685390797,1756823217
3.058027283,-1.004985492,9.798608547,0.273667627,-2.035403026,-0.626747734,1756823217
3.345165995,-0.409172665,9.238688059,0.290771853,-2.05739407,-0.527787566,1756823217
3.747160192,0.155533469,8.930013943,0.287106679,-1.992642372,-0.412944901,1756823217
4.199403663,0.839880733,8.769694829,0.288328392,-1.910786517,-0.334754151,1756823217
4.567898343,1.466800254,8.693124506,0.355523586,-1.791056931,-0.180816111,1756823217
4.835894475,2.060220259,8.458627891,0.368962586,-1.621236325,-0.080634211,1756823217
4.993820766,2.694318248,7.968099258,0.30665435,-1.439198484,0.106290551,1756823217
5.017748992,3.407379382,7.456035222,0.321315115,-1.246165121,0.125838239,1756823217
5.010570524,3.617947771,6.872186507,0.224798408,-1.015257991,0.105068821,1756823217
5.132604477,4.108476404,6.556333924,0.168598806,-0.827111515,0.138055544,1756823217
5.556134077,4.73061028,7.281359172,0.05253441,-0.631634639,0.135612083,1756823217
5.065605444,4.354937132,8.532805392,-0.267558974,-0.283441471,0.250454748,1756823217
5.931807225,5.666203917,9.408578463,-0.415388345,0.124616509,0.894306744,1756823217
5.158925526,5.998806258,9.432506689,-0.729373112,0.531452775,0.970054033,1756823217
4.287938099,5.668596739,8.807979991,-0.807563845,0.976162651,1.070235897,1756823217
3.40498656,5.371886737,7.968099258,-0.836885394,1.401324874,0.949284563,1756823217
2.462214455,4.735395925,7.630711271,-0.784350948,1.793500374,0.998153782,1756823217
1.603191142,3.493520996,7.456035222,-0.785572661,2.129476255,0.915076127,1756823217
0.928415169,2.849851717,7.322037156,-0.734260016,2.368935324,0.829554976,1756823217
0.397208552,2.301895341,7.910671516,-0.524122392,2.491108372,0.927293449,1756823217
-0.126819598,1.722832272,9.482755964,-0.379958178,2.548529844,0.87109383,1756823217
-0.911665411,1.172483074,11.18166001,-0.301767445,2.581516566,0.878424247,1756823217
-1.844866225,0.449850649,12.35653591,-0.273667627,2.602286019,0.786794462,1756823217
-2.639283328,-0.555134843,12.75613728,-0.285884914,2.542421086,0.722042694,1756823217
-3.309273656,-1.837687757,12.82313631,-0.219911486,2.394591681,0.665843145,1756823217
-3.845265918,-2.969492847,12.76092293,-0.045204028,2.161241248,0.652404092,1756823217
-3.780659708,-3.029313412,12.57906841,0.227241869,1.77028746,0.735481729,1756823217
-3.905086483,-3.060420105,13.11984632,0.572991628,1.22539565,0.989601703,1756823217
-6.826722878,-5.314458995,12.64606744,0.472809694,1.087340107,0.929736893,1756823217
-4.955535605,-4.807180603,11.92343502,0.527787566,0.537561392,0.492357365,1756823217
-4.450650036,-5.15413988,11.67936711,0.572991628,0.188146493,0.529009279,1756823217
-3.931407532,-5.099104961,11.58843985,0.540004888,-0.086742864,0.526565835,1756823217
-3.670589868,-5.156532703,11.32522937,0.570548115,-0.305432619,0.542448332,1756823217
-3.318844946,-5.190032219,11.10269686,0.471587964,-0.458148929,0.516792009,1756823217
-2.849851717,-5.376672382,10.98305573,0.478918364,-0.558330828,0.48747046,1756823217
-2.455035988,-5.527420206,10.91366388,0.425162223,-0.579100246,0.461814103,1756823217
-1.957328887,-5.544169964,10.64806057,0.408057962,-0.60231309,0.460592372,1756823217
-1.6199409,-5.376672382,10.38006444,0.43615778,-0.591317568,0.452040276,1756823217
-1.478764367,-4.833501652,10.04028363,0.444709893,-0.526565835,0.492357365,1756823217
-1.406979689,-4.161118501,9.836893709,0.411723171,-0.467922755,0.482583538,1756823217
-1.347159124,-3.424129141,9.659824836,0.365297412,-0.367740873,0.50701813,1756823217
-1.368694527,-2.677568489,9.482755964,0.273667627,-0.263893783,0.438601224,1756823217
-1.433300737,-1.840080579,9.241080881,0.167377075,-0.155159771,0.486248747,1756823217
-1.598405497,-1.079162993,9.08315459,0.090408055,-0.02443461,0.41783184,1756823217
-1.85922316,-0.382851616,9.078368944,0.042760567,0.074525559,0.346971438,1756823217
-2.124826469,0.071784678,8.927621121,-0.002443461,0.120951317,0.243124365,1756823217
-2.342573325,0.246460728,8.556733618,-0.036651914,0.185703032,0.111177473,1756823217
-2.541177601,0.53359944,7.941778209,0.042760567,0.109955743,0.05009095,1756823217
-2.620140747,1.119840977,7.159325219,0.164933614,0.031764992,-0.008552113,1756823217
-2.648854618,2.299502519,6.436692794,0.279776297,-0.080634211,-0.012217305,1756823217
-2.749353167,3.751945837,6.206981824,0.30665435,-0.155159771,-0.037873645,1756823217
-2.852244539,5.206781978,6.486942069,0.207694181,-0.221133216,0.018325957,1756823217
-2.785245506,5.690132143,7.372286431,-0.046425758,-0.328645498,-0.034208453,1756823217
-2.560320182,6.671189409,7.728816998,-0.296880506,-0.508239896,-0.151494579,1756823217
-1.832902112,6.022734484,8.056633694,-0.514348513,-0.777020583,-0.118507856,1756823217
-1.215553881,5.510670448,8.039883936,-0.62308256,-1.121548612,-0.112399204,1756823217
-0.679561618,5.127818832,8.090133211,-0.692721163,-1.459967954,-0.056199602,1756823217
-0.107677017,4.761716974,8.293523132,-0.712268885,-1.700648858,-0.064751715,1756823217
0.433100891,3.974478339,8.659624989,-0.770911896,-1.798387279,-0.07696902,1756823217
1.395015576,3.115455025,8.985048863,-0.791681366,-1.729970407,-0.117286126,1756823217
2.349751793,2.194218324,9.50668419,-0.803898671,-1.562593262,-0.155159771,1756823217
3.177668413,1.349551946,10.26042331,-0.761138104,-1.306029914,-0.184481302,1756823217
3.876372612,0.629312344,10.8945213,-0.691499432,-0.951728024,-0.210137642,1756823217
4.141975921,-0.162711937,11.15294614,-0.56443948,-0.596204472,-0.2565634,1756823217
4.211367776,-1.098305573,11.2127667,-0.41050144,-0.270002435,-0.354301821,1756823217
3.919443419,-1.897508322,11.22712364,-0.206472451,0.07574729,-0.529009279,1756823217
3.572484142,-2.507678085,11.39701404,0.003665191,0.43004911,-0.6414085,1756823218
3.12024067,-2.962314379,11.70329534,0.158824962,0.725707938,-0.767246722,1756823218
2.529213488,-3.428914786,11.9856484,0.283441471,0.988379973,-0.884532865,1756823218
2.105683888,-4.208974953,12.33021486,0.447153372,1.152091874,-0.913854414,1756823218
1.672582997,-5.010570524,12.57428276,0.609643508,1.20706978,-1.001819026,1756823218
1.44526485,-5.599204884,12.8638143,0.811229036,1.104444333,-1.022588409,1756823218
1.31605243,-5.773880934,13.19641664,0.974940938,0.863763482,-0.995710321,1756823218
1.335195011,-5.869593838,13.67737398,1.028697044,0.494800843,-0.949284563,1756823218
1.521835174,-5.596812061,13.93101318,0.949284563,0.068416907,-0.911410953,1756823218
1.902293967,-5.754738353,14.06740407,0.73792519,-0.382401639,-0.823446341,1756823218
2.407179536,-5.950949806,13.67498116,0.415388345,-0.790459636,-0.702495024,1756823218
2.873779943,-6.27637368,12.93559898,0.172263997,-1.189965484,-0.636521596,1756823218
3.263810026,-5.967699564,11.87079292,0.021991149,-1.508837086,-0.526565835,1756823218
3.582055432,-5.192425042,10.70070267,0.006108652,-1.71286611,-0.379958178,1756823218
3.751945837,-4.431507455,9.870393225,0.05253441,-1.835039158,-0.284663184,1756823218
3.89312237,-3.438486076,9.269794752,0.098960169,-1.759291938,-0.151494579,1756823218
3.991228097,-2.196611147,8.879764669,0.227241869,-1.590693063,-0.006108652,1756823218
4.182653905,-0.863808959,8.664410635,0.331088942,-1.357342507,0.061086524,1756823218
4.30708068,0.191425808,8.62373265,0.35918876,-1.022588409,0.124616509,1756823218
4.321437616,1.280160091,8.465806359,0.316428176,-0.734260016,0.22968533,1756823218
4.283152454,2.03389921,8.262416438,0.196698607,-0.463035868,0.327423768,1756823218
4.137190275,2.648854618,7.84127966,0.134390352,-0.218689755,0.41783184,1756823218
3.869194144,3.014956476,7.11386159,0.02565634,-0.017104227,0.49357913,1756823218
3.517449222,3.278166962,6.52522723,0.030543262,0.169820536,0.558330828,1756823218
3.132204783,3.567698497,6.116054566,-0.042760567,0.346971438,0.630412908,1756823218
2.75174599,3.759124305,5.879165128,-0.119729587,0.510683339,0.71837752,1756823218
2.416750826,3.917050596,5.876772306,-0.122173048,0.65973444,0.704938467,1756823218
2.036292033,4.039084549,6.27637368,-0.211359372,0.834441933,0.728151381,1756823218
1.588834206,4.063012775,6.608976021,-0.248011287,1.031140557,0.702495024,1756823218
0.995414202,3.919443419,6.587440618,-0.337197611,1.197295832,0.653625822,1756823218
0.538385085,3.582055432,6.472585133,-0.351858377,1.396437969,0.516792009,1756823218
0.232103792,3.192025348,6.63529707,-0.393397231,1.556484627,0.50701813,1756823218
0.028713871,2.672782844,7.149753929,-0.395840674,1.649336143,0.56443948,1756823218
-0.212961211,2.246860421,8.078169098,-0.30665435,1.695761971,0.548556984,1756823218
-0.538385085,1.966900177,9.542576529,-0.217468025,1.721418189,0.551000445,1756823218
-1.103091219,1.780260014,11.0644117,-0.248011287,1.753183181,0.601091377,1756823218
-1.663011707,1.409372511,12.11007518,-0.291993584,1.760513669,0.514348513,1756823218
-2.323430745,0.667597505,12.55274736,-0.375071256,1.811826262,0.516792009,1756823218
-2.957528734,-0.299102825,12.63171051,-0.408057962,1.820378462,0.497244304,1756823218
-3.455235834,-1.395015576,12.78724397,-0.295658793,1.766622286,0.516792009,1756823218
-3.821337692,-2.44785752,13.18684535,-0.065973446,1.665218709,0.483805251,1756823218
-4.220939066,-3.270988494,13.5840539,0.223576677,1.484402581,0.554665654,1756823218
-4.285545277,-3.577269787,13.49791229,0.494800843,1.214400128,0.530231009,1756823218
-4.283152454,-3.759124305,13.18923817,0.707381928,0.862541681,0.569326385,1756823218
-4.259224228,-3.716053498,12.76331575,0.858876507,0.514348513,0.581543707,1756823218
-4.319044793,-3.622733416,12.48814115,0.989601703,0.206472451,0.675616936,1756823218
-4.06779842,-3.495913819,12.3350005,1.02503187,-0.05253441,0.693942876,1756823218
-3.754338659,-3.462414302,12.27039429,0.995710321,-0.250454748,0.64018677,1756823218
-3.354737285,-3.562912851,12.19621679,0.959058441,-0.421497014,0.719599251,1756823218
-2.904886636,-3.505485109,12.16989574,0.863763482,-0.537561392,0.634078152,1756823218
-2.50289244,-3.378665511,12.03111203,0.79534654,-0.588874125,0.597426203,1756823218
-2.177468566,-3.017349299,11.77268719,0.739146903,-0.592539299,0.594982742,1756823218
-1.971685822,-2.603390989,11.44008485,0.555887367,-0.540004888,0.561996037,1756823218
-1.813759531,-1.667797352,10.75573759,0.405614518,-0.456927198,0.554665654,1756823218
-1.607976787,-0.509671214,10.30827976,0.263893783,-0.386066848,0.427605667,1756823218
-1.43569356,0.471386052,9.93978508,0.158824962,-0.270002435,0.419053553,1756823218
-1.433300737,1.423729447,9.614361207,0.090408055,-0.155159771,0.294437062,1756823218
-1.361516059,2.002792516,9.176474671,-0.013439035,-0.034208453,0.180816111,1756823218
-1.454836141,2.321037922,8.566304908,-0.07574729,0.042760567,0.041538836,1756823218
-1.536192109,2.313859454,7.642675384,-0.105068821,0.085521133,-0.070860368,1756823218
-1.624726545,2.048256146,6.649654005,-0.085521133,0.05253441,-0.092851516,1756823218
-1.581655739,2.105683888,5.776273756,-0.003665191,-0.017104227,-0.158824962,1756823218
-1.581655739,2.411965181,5.180460929,0.030543262,-0.07574729,-0.083077672,1756823218
-1.598405497,2.636890505,4.792823668,0.040317106,-0.079412481,-0.086742864,1756823218
-1.574477271,2.900100991,4.558327053,-0.003665191,-0.086742864,-0.065973446,1756823218
-1.447657673,3.125026316,4.7856452,-0.124616509,-0.095294977,-0.12950343,1756823218
-1.25144622,3.421736318,5.247459962,-0.125838239,-0.098960169,-0.157603231,1756823218
-0.976271621,3.866801322,5.723631659,-0.23090706,-0.174707458,-0.163711884,1756823218
-0.844666378,4.352544309,6.587440618,-0.234572251,-0.237015712,-0.196698607,1756823218
-0.703489844,4.823930362,7.824529902,-0.310319558,-0.304210889,-0.213802833,1756823218
-0.58863436,5.118247541,9.308079914,-0.500909513,-0.309097793,-0.252898209,1756823218
-0.126819598,4.888536572,10.14078218,-0.687834258,-0.291993584,-0.274889357,1756823218
0.351744922,3.771088418,10.36331468,-0.807563845,-0.250454748,-0.279776297,1756823218
0.904486943,2.230110663,10.42074242,-0.763581548,-0.20525072,-0.309097793,1756823218
1.373480172,0.715453957,10.57627589,-0.616973856,-0.168598806,-0.355523586,1756823218
1.732403562,-0.684347264,10.96391315,-0.481361808,-0.080634211,-0.455705485,1756823218
1.957328887,-1.91425808,11.64347477,-0.277332818,0.006108652,-0.469144485,1756823218
1.998006871,-2.959921556,12.35653591,-0.124616509,0.12950343,-0.527787566,1756823218
1.799402595,-4.168296969,13.30648648,-0.003665191,0.317649941,-0.548556984,1756823218
1.507478238,-4.687539473,13.99083374,0.10262536,0.51190507,-0.530231009,1756823218
1.373480172,-5.285745123,14.93360585,0.166155345,0.69882985,-0.56321775,1756823218
1.241874929,-5.61356182,15.77348658,0.290771853,0.7550294,-0.612086969,1756823218
1.222732349,-5.391029318,16.20898029,0.35918876,0.71837752,-0.689055989,1756823218
1.18684001,-4.855037055,16.13240997,0.333532438,0.541226601,-0.758694643,1756823218
1.246660575,-4.113262049,15.53898996,0.262672052,0.222354947,-0.781907487,1756823218
1.378265818,-3.622733416,14.6105748,0.118507856,-0.070860368,-0.77579887,1756823218
1.622333723,-3.189632526,13.34237882,0.043982297,-0.411723171,-0.675616936,1756823218
1.895115499,-2.734996232,12.14596752,-0.035430184,-0.73670346,-0.575435072,1756823218
2.127219291,-2.344966148,11.23669493,-0.046425758,-1.016479791,-0.405614518,1756823218
2.289931228,-1.957328887,10.45184912,-0.092851516,-1.191187214,-0.291993584,1756823218
2.385644132,-1.703689691,9.652646368,-0.134390352,-1.253495469,-0.147829388,1756823218
2.3928226,-1.459621786,8.74337378,-0.086742864,-1.210734954,-0.02443461,1756823218
2.419143649,-0.90209412,7.987241839,0.002443461,-1.076344515,0.047647489,1756823218
2.45742881,-0.22971097,7.47278498,0.120951317,-0.878424247,0.158824962,1756823218
2.529213488,0.559920488,7.204788849,0.224798408,-0.624304273,0.212581103,1756823218
2.476571391,1.253839042,6.967899411,0.25534167,-0.382401639,0.366519143,1756823218
2.385644132,1.974078645,6.762116668,0.382401639,-0.122173048,0.398284135,1756823218
2.210968082,2.498106794,6.556333924,0.441044702,0.130725161,0.519235452,1756823218
1.921436548,2.778067039,5.900700532,0.458148929,0.344527994,0.502131226,1756823218
1.397408398,2.967100024,5.036891573,0.444709893,0.542448332,0.526565835,1756823218
0.985842911,3.05563446,4.524827537,0.438601224,0.735481729,0.551000445,1756823218
0.741775006,3.12024067,4.175475437,0.428827397,0.895528457,0.558330828,1756823218
0.512064036,3.180061235,4.182653905,0.421497014,1.067792436,0.521678896,1756823218
0.332602341,3.311666478,4.599005037,0.448375102,1.227839094,0.519235452,1756823218
0.114855485,3.507877932,5.496313512,0.395840674,1.369559881,0.587652324,1756823218
-0.296710002,3.567698497,6.836294168,0.260228591,1.488067755,0.605978334,1756823218
-0.818345329,3.512663577,8.451449423,0.096516708,1.508837086,0.615752143,1756823218
-1.485942835,3.412165028,10.23410226,-0.194255146,1.540602078,0.620639099,1756823218
-2.287538406,3.043670347,11.62193937,-0.421497014,1.576032367,0.670730032,1756823218
-3.077169864,2.464607278,12.63171051,-0.568104654,1.58947135,0.720820964,1756823218
-3.845265918,1.969293,13.54816156,-0.708603641,1.560149801,0.750142513,1756823218
-4.814359071,1.538584932,14.16311697,-0.805120401,1.484402581,0.7550294,1756823218
-5.6327044,0.961914685,14.16790261,-0.929736893,1.425759501,0.799011714,1756823218
-6.352944003,0.263210486,13.97169116,-0.918741301,1.295034253,0.745255608,1756823218
-6.955935298,-0.461814762,13.81615769,-0.853989603,1.167974301,0.786794462,1756823218
-7.252645301,-1.416550979,13.80180076,-0.664621414,0.998153782,0.75747293,1756823218
-7.192824736,-2.629712037,13.6582314,-0.351858377,0.695164676,0.726929668,1756823218
-6.908078846,-3.637090352,13.23948745,-0.019547688,0.366519143,0.767246722,1756823218
-6.484549246,-3.830908983,12.58146123,0.248011287,0.014660766,0.797789984,1756823218
-6.025127307,-3.65384011,11.83250776,0.395840674,-0.329867229,0.824668072,1756823218
-5.536991496,-3.376272689,11.03330501,0.372627795,-0.599869646,0.753807686,1756823218
-5.027320283,-3.067598573,10.32024387,0.34086282,-0.789237905,0.720820964,1756823218
-4.67557536,-2.64167615,9.901499919,0.271224166,-0.868650369,0.610865238,1756823218
-4.366901245,-2.203789615,9.791430079,0.273667627,-0.81489421,0.50701813,1756823218
-4.134797453,-1.529013641,9.822536773,0.130725161,-0.730594842,0.370184317,1756823218
-4.158725679,-0.701097022,9.688538707,0.054977871,-0.615752143,0.219911486,1756823219
-4.175475437,-0.074177501,9.353543543,0.042760567,-0.50701813,0.069638637,1756823219
-4.256831405,0.088534436,8.496913053,-0.007330383,-0.415388345,-0.047647489,1756823219
-4.206582131,0.306281293,7.11386159,0.086742864,-0.444709893,-0.166155345,1756823219
-4.00319221,0.251246373,6.151946905,0.327423768,-0.592539299,-0.237015712,1756823219
-3.637090352,0.579063069,5.496313512,0.579100246,-0.811229036,-0.307876063,1756823219
-3.266202849,0.70827549,5.070391089,0.821002898,-1.061683819,-0.403171057,1756823219
-3.031706234,1.038485008,4.754538506,0.977384381,-1.285260444,-0.455705485,1756823219
-2.790031152,1.07677017,4.929214556,1.017701504,-1.423316057,-0.422718727,1756823219
-2.526820666,1.792224127,5.414957544,0.946841119,-1.401324874,-0.489913921,1756823219
-2.16311163,2.335394858,6.51565594,0.797789984,-1.384220595,-0.444709893,1756823219
-1.801795418,3.316452124,7.709674417,0.536339679,-1.370781612,-0.58276542,1756823219
-1.629512191,4.07736971,8.805587168,0.241902634,-1.387885769,-0.631634639,1756823219
-1.227517994,4.522434714,9.288937333,-0.095294977,-1.497841564,-0.695164676,1756823219
-0.461814762,4.651647134,9.020941202,-0.365297412,-1.775174365,-0.696386406,1756823219
0.562313311,4.254438583,8.781658942,-0.652404092,-2.080606984,-0.568104654,1756823219
1.268195978,3.594019545,8.882157491,-0.901637092,-2.298074991,-0.504574687,1756823219
2.026720742,3.031706234,9.047262251,-1.16675257,-2.361604976,-0.331088942,1756823219
3.060420105,2.366501551,9.166903381,-1.24494339,-2.320066053,-0.331088942,1756823219
4.161118501,1.749153321,9.372686124,-1.236391172,-2.235766877,-0.25534167,1756823219
4.96032125,0.72741807,9.80100137,-1.150870144,-2.11481542,-0.200363798,1756823219
5.761916821,-0.452243471,10.41117113,-1.038470905,-1.897347412,-0.131946891,1756823219
6.178267953,-1.598405497,11.09791122,-0.907745709,-1.555262914,-0.155159771,1756823219
6.616154489,-2.605783811,11.81815082,-0.704938467,-1.152091874,-0.167377075,1756823219
6.726224329,-3.318844946,12.6101751,-0.491135634,-0.681725623,-0.155159771,1756823219
7.350751027,-3.802195111,13.3304147,-0.310319558,-0.28099801,-0.039095375,1756823219
7.28853764,-3.792623821,14.15354568,-0.072082098,0.094073247,0.092851516,1756823219
7.037291267,-3.263810026,14.51007625,-0.006108652,0.366519143,0.194255146,1756823219
6.522834408,-2.531606311,14.23490165,-0.02565634,0.558330828,0.360410491,1756823219
5.80738045,-1.895115499,13.41177067,-0.116064395,0.646295405,0.558330828,1756823219
5.027320283,-1.636690658,12.46899857,-0.262672052,0.65973444,0.711047172,1756823219
4.350151487,-1.643869126,11.75833026,-0.320093385,0.673173492,0.873537273,1756823219
3.711267853,-1.828116466,11.19840977,-0.372627795,0.75747293,1.012814547,1756823219
3.129811961,-2.158325985,10.64566775,-0.309097793,0.873537273,1.126435517,1756823219
2.603390989,-2.591426876,9.528219593,-0.161268423,1.001819026,1.20584791,1756823219
2.14396905,-2.962314379,8.152346598,0.095294977,1.112996464,1.277930096,1756823219
1.741974853,-2.653640263,7.286144817,0.353080108,1.229060824,1.291369079,1756823219
1.392622753,-1.818545176,6.999006105,0.553443888,1.309695088,1.273043191,1756823219
1.162911784,-0.792024281,6.932007072,0.728151381,1.429424692,1.191187214,1756823219
0.923629524,0.05503492,7.42732135,0.744033878,1.511280529,1.091005281,1756823219
0.643669279,0.799202748,8.731409667,0.638965057,1.583362715,1.099557429,1756823219
0.22971097,1.462014609,10.47817017,0.474031425,1.611462533,0.984714729,1756823219
-0.234496615,2.364108729,12.17707421,0.191811685,1.585806176,0.985936529,1756823219
-0.937986459,3.426521963,13.17009559,-0.096516708,1.557706357,0.91018924,1756823219
-1.543370577,4.06779842,13.17009559,-0.475253155,1.490511216,0.839328837,1756823219
-2.220539373,4.520041891,12.41157083,-0.761138104,1.411098665,0.779464044,1756823219
-2.885744056,4.677968183,11.59801114,-0.974940938,1.363451264,0.604756621,1756823219
-3.378665511,4.560719876,10.88495001,-1.213178398,1.346346968,0.456927198,1756823219
-3.749553014,4.192225195,10.31785105,-1.308473358,1.313360262,0.326202055,1756823219
-3.89312237,3.637090352,9.734002337,-1.343903524,1.215621859,0.201585529,1756823219
-4.005585032,3.050848815,8.865407733,-1.334129715,1.020144965,0.197920337,1756823219
-4.036691726,2.459821633,7.865207886,-1.160643953,0.79534654,0.161268423,1756823219
-4.031906081,1.902293967,6.999006105,-0.932180353,0.56321775,0.20402899,1756823219
-4.051048662,1.576870093,6.484549246,-0.607200064,0.397062405,0.196698607,1756823219
-4.072584065,1.32562372,6.467799488,-0.279776297,0.28221974,0.2565634,1756823219
-4.185046727,1.115055332,6.805187474,0.021991149,0.241902634,0.274889357,1756823219
-4.37168689,0.856630491,7.245466833,0.276111088,0.254119939,0.259006861,1756823219
-4.744967216,0.459421939,7.506284496,0.43615778,0.268780705,0.2565634,1756823219
-5.036891573,-0.157926292,7.223931429,0.62186083,0.28099801,0.118507856,1756823219
-5.288137946,-1.019342428,6.223731583,0.827111515,0.219911486,0.05253441,1756823219
-5.290530769,-1.947757596,5.15413988,1.088561837,0.111177473,-0.053756141,1756823219
-5.120640364,-2.617747924,5.14456859,1.341460081,-0.090408055,-0.123394778,1756823219
-4.919643266,-3.048455992,6.360122471,1.462411398,-0.238237443,-0.177150919,1756823219
-4.948357137,-4.039084549,8.142775308,1.488067755,-0.279776297,-0.291993584,1756823219
-4.826323184,-5.225924558,10.06181903,1.392772795,-0.171042267,-0.516792009,1756823219
-4.907679153,-6.58983344,11.61715372,1.273043191,-0.079412481,-0.807563845,1756823219
-4.989035121,-8.635696763,13.13420325,1.111774751,-0.057421332,-1.042136079,1756823219
-4.857429878,-9.576076045,14.14876003,0.999375495,-0.182037841,-1.370781612,1756823219
-4.335794551,-9.499505722,14.99581923,0.979827825,-0.470366251,-1.587027889,1756823219
-3.036491879,-8.116454259,15.90509182,0.946841119,-1.029918757,-1.73241385,1756823219
-1.083948638,-5.381458027,16.90289885,0.768468452,-1.784948174,-1.650557874,1756823219
0.863808959,-2.581855585,17.77388627,0.551000445,-2.615724863,-1.458746224,1756823219
2.493321149,-0.066999033,17.53460401,0.185703032,-3.260798676,-1.176526519,1756823219
3.747160192,2.091326952,16.08216069,-0.036651914,-3.704286892,-0.930958623,1756823219
4.05822713,2.15354034,13.99322656,-0.287106679,-3.766595024,-0.774577139,1756823219
4.835894475,4.072584065,11.27737291,-0.441044702,-3.714060701,-0.69882985,1756823219
5.175675284,4.331008906,9.329615317,-0.504574687,-3.511253267,-0.559552576,1756823219
5.809773273,4.811966249,8.441878133,-0.605978334,-3.054326191,0.10262536,1756823219
5.522634561,5.017748992,6.888936265,-0.896750187,-2.549751434,0.342084533,1756823219
5.175675284,5.08953367,5.357529801,-1.242499929,-2.03784647,0.450818546,1756823219
4.713860522,4.993820766,3.830908983,-1.525941365,-1.518611017,0.526565835,1756823219
4.247260115,4.900500685,2.69671107,-1.709200936,-0.972497477,0.62186083,1756823219
3.88355108,4.632504554,2.210968082,-1.846034697,-0.376292969,0.614530412,1756823219
3.594019545,4.024727613,2.160718808,-1.7898352,0.199142068,0.555887367,1756823219
3.510270754,3.280559785,2.533999133,-1.62856669,0.728151381,0.532674488,1756823219
3.388236802,2.57706994,3.093919622,-1.324355784,1.192408945,0.471587964,1756823219
2.986242605,1.91425808,3.730410433,-0.911410953,1.610240803,0.470366251,1756823219
2.421536471,1.30648114,4.089333823,-0.553443888,1.894903969,0.41050144,1756823219
1.696511223,0.842273555,4.220939066,-0.157603231,2.048841991,0.353080108,1756823219
1.009771137,0.476171697,4.792823668,0.182037841,2.197893127,0.331088942,1756823219
0.476171697,0.093320081,5.895914886,0.551000445,2.322509758,0.444709893,1756823219
0.160319114,-0.346959277,7.334001269,1.001819026,2.365270272,0.56443948,1756823219
-0.141176533,-0.775274522,9.848857822,1.328020958,2.342057358,0.789237905,1756823219
-0.696311377,-0.758524764,13.54098309,1.541823791,2.204001762,0.940732502,1756823219
-1.550549045,-0.47856452,16.82872135,1.516167574,2.073276636,1.060462019,1756823219
-2.32821639,-0.60777694,18.465412,1.372003342,1.821600193,1.144761387,1756823219
-3.139383251,-0.906879765,18.94397652,1.164309127,1.550376009,1.22417392,1756823219
-3.778266885,-1.385444285,18.78126459,0.880867691,1.233947729,1.230282555,1756823219
-4.12283334,-2.038684855,18.28834313,0.634078152,0.905302266,1.232725998,1756823219
-4.25204576,-2.067398726,18.30987854,0.409279727,0.616973856,1.161865683,1756823219
-3.960121403,-1.368694527,18.54676797,0.17837265,0.390953752,1.174082935,1756823219
-7.743173934,-4.874179636,18.00359724,-0.463035868,0.547335271,1.02503187,1756823219
-5.515456093,-5.769095289,15.37388521,-0.886976326,0.458148929,0.206472451,1756823219
-5.230710204,-6.338587067,13.08156115,-1.127657247,0.41661011,0.020769418,1756823219
-4.682753828,-5.654239804,11.20080259,-1.111774751,0.238237443,-0.28099801,1756823219
-4.101297936,-4.180261082,9.303294269,-0.943175945,-0.020769418,-0.442266432,1756823219
-3.383451156,-2.531606311,7.800601676,-0.669508319,-0.379958178,-0.618195586,1756823219
-2.703889538,-1.42612227,6.747759732,-0.504574687,-0.753807686,-0.654847535,1756823219
-2.050648968,-0.409172665,5.783452224,-0.332310707,-1.111774751,-0.777020583,1756823219
-1.462014609,0.301495648,4.917250443,-0.243124365,-1.400103143,-0.855211333,1756823219
-0.959521863,0.866201781,4.213760599,-0.237015712,-1.584584445,-0.889419769,1756823219
-0.569491779,1.265803155,3.629911884,-0.244346095,-1.700648858,-0.908967509,1756823219
-0.275174599,1.476371544,3.144168896,-0.249233017,-1.738522485,-0.868650369,1756823219
0.066999033,1.282552914,2.737389054,-0.171042267,-1.693318388,-0.864985195,1756823219
0.30388847,0.995414202,2.041077678,-0.031764992,-1.63589716,-0.781907487,1756823219
0.461814762,1.01216396,1.330409366,0.135612083,-1.563814975,-0.580321976,1756823219
0.655633392,1.280160091,1.402194044,0.464257581,-1.521054478,-0.5131268,1756823219
1.009771137,1.933400661,2.708675183,0.827111515,-1.3976597,-0.350636647,1756823219
1.232303639,2.600998166,5.067998267,1.150870144,-1.144761387,-0.196698607,1756823219
1.244267752,3.251845913,8.248059502,1.221730476,-0.726929668,-0.080634211,1756823219
1.146162025,3.94815729,11.25344469,1.134987595,-0.072082098,0.013439035,1756823219
0.880558717,4.094119469,13.57448261,0.968832233,0.647517118,0.067195176,1756823219
0.205782744,3.558127206,14.75414415,0.714712346,1.280373557,0.167377075,1756823219
-1.064806057,2.538784779,16.02712577,0.667064858,1.799609009,0.161268423,1756823219
-3.316452124,1.13180509,17.98924031,0.662177901,2.343278966,0.030543262,1756823219
-5.280959478,-0.638883634,19.4177554,0.604756621,2.6609291,-0.211359372,1756823220
-6.11126892,-2.510070907,19.04208225,0.607200064,2.558303652,-0.494800843,1756823220
-6.384050697,-3.428914786,19.37947024,0.62186083,1.929112405,-0.565661211,1756823220
-5.996413436,-3.869194144,19.96571177,0.558330828,0.935845527,-0.504574687,1756823220
-5.309673349,-3.984049629,19.70010847,0.327423768,-0.326202055,-0.49357913,1756823220
-4.041477371,-4.508077778,18.48455458,0.095294977,-1.607797359,-0.532674488,1756823220
-1.962114532,-5.25463843,17.03450409,-0.068416907,-2.681698291,-0.452040276,1756823220
0.492921456,-5.096712138,15.49352634,-0.304210889,-3.632204724,-0.360410491,1756823220
2.514856553,-4.098905114,13.95254858,-0.409279727,-4.367686453,-0.323758559,1756823220
4.048655839,-2.603390989,11.87557856,-0.559552576,-4.729318692,-0.161268423,1756823220
4.902893507,-0.969093153,9.439685157,-0.646295405,-4.715879848,-0.041538836,1756823220
5.462813996,0.200997098,7.262216591,-0.668286588,-4.408003524,0.144164196,1756823220
5.900700532,0.887737185,5.259424075,-0.662177901,-3.892433368,0.394618961,1756823220
6.020341662,1.177268719,3.503092286,-0.592539299,-3.251024868,0.598647916,1756823220
5.958128274,1.239482107,2.220539373,-0.576656802,-2.544864547,0.777020583,1756823220
5.627918755,1.234696462,1.378265818,-0.520457183,-1.887573621,0.838107107,1756823220
5.216353268,1.275374446,0.825523797,-0.474031425,-1.233947729,0.877202447,1756823220
4.670789715,1.328016543,0.492921456,-0.557109097,-0.605978334,0.836885394,1756823220
4.127618985,1.344766301,0.224925324,-0.615752143,-0.037873645,0.783129218,1756823220
3.512663577,1.299302672,-0.014356936,-0.753807686,0.530231009,0.701273293,1756823220
2.897708169,1.01216396,-0.052642097,-0.772133696,1.083674933,0.656069266,1756823220
2.411965181,0.401994197,0.100498549,-0.703716754,1.649336143,0.520457183,1756823220
2.021935097,-0.416351132,0.610169763,-0.553443888,2.149023856,0.419053553,1756823220
1.718046627,-1.292124204,1.462014609,-0.20402899,2.612059828,0.245567826,1756823220
1.540977754,-2.148754695,2.648854618,0.217468025,2.962696405,0.086742864,1756823220
1.569691626,-2.63210486,4.292723744,0.619417386,3.197268692,-0.043982297,1756823220
1.852044692,-2.639283328,6.999006105,1.075122784,3.281568129,-0.091629786,1756823220
1.919043725,-2.067398726,11.15773178,1.395216239,3.409849672,-0.155159771,1756823220
1.574477271,-1.134197912,16.74018691,1.640784065,3.540574938,-0.094073247,1756823220
0.887737185,-0.014356936,21.10469533,1.602910315,3.619987471,-0.135612083,1756823220
-0.004785645,0.490528633,22.0857526,1.55159774,3.351206609,-0.015882496,1756823220
-0.689132909,0.705882667,22.95674002,1.356120776,2.646268125,0.337197611,1756823220
-1.679761465,-0.425922423,20.81037815,1.009149374,1.645670969,0.634078152,1756823220
-2.639283328,-1.37108735,19.7886429,0.800233427,0.834441933,0.67928211,1756823220
-3.218346397,-1.933400661,21.27458574,0.339641055,0.323758559,0.653625822,1756823220
-3.40498656,-3.455235834,21.03530348,-0.243124365,0,0.607200064,1756823220
-2.75174599,-4.685146651,18.83390668,-0.674395206,-0.217468025,0.532674488,1756823220
-2.493321149,-5.395814963,16.35733529,-0.979827825,-0.381179909,0.425162223,1756823220
-2.397608245,-4.917250443,14.05065431,-1.111774751,-0.448375102,0.290771853,1756823220
-2.256431712,-3.82851616,12.06461155,-1.143539674,-0.480140077,0.100181899,1756823220
-2.093719775,-2.404786713,10.15035347,-1.14720497,-0.442266432,-0.086742864,1756823220
-2.02432792,-1.411765334,8.370093455,-1.106887777,-0.390953752,-0.249233017,1756823220
-1.873580096,-0.538385085,6.76450949,-1.045801253,-0.35918876,-0.428827397,1756823220
-1.720439449,-0.093320081,5.338387221,-0.937067258,-0.322536846,-0.610865238,1756823220
-1.524227996,0.210568389,4.101297936,-0.79412481,-0.343306264,-0.7550294,1756823220
-1.440479205,0.567098956,3.036491879,-0.668286588,-0.404392788,-0.924850006,1756823220
-1.265803155,1.079162993,2.177468566,-0.467922755,-0.515570278,-1.075122784,1756823220
-1.055234767,1.636690658,1.459621786,-0.224798408,-0.608421795,-1.161865683,1756823220
-0.751346296,2.112862356,1.115055332,0.062308254,-0.704938467,-1.218065302,1756823220
-0.327816696,2.531606311,0.856630491,0.346971438,-0.767246722,-1.176526519,1756823220
0.083748791,2.983849782,0.660419038,0.527787566,-0.835663663,-1.115439925,1756823220
0.531206617,3.089133977,0.732203716,0.722042694,-0.924850006,-0.966388789,1756823220
0.921236701,3.122633493,1.378265818,0.784350948,-0.985936529,-0.774577139,1756823220
1.210768236,3.311666478,2.787638329,0.79412481,-0.933402084,-0.540004888,1756823220
1.454836141,3.914657774,4.922036088,0.685390797,-0.77579887,-0.283441471,1756823220
1.627119368,4.206582131,7.489534738,0.56321775,-0.408057962,-0.094073247,1756823220
1.751546143,4.19701084,10.07139032,0.503352956,0.039095375,0.092851516,1756823220
1.732403562,3.684946804,12.36850002,0.412944901,0.566882941,0.196698607,1756823220
1.450050496,3.132204783,13.785051,0.41050144,1.083674933,0.266337244,1756823220
0.703489844,2.64167615,14.9814623,0.376292969,1.599245141,0.362853969,1756823220
-0.619741053,1.761117434,17.14457393,0.355523586,2.145358682,0.405614518,1756823220
-2.127219291,-0.440279358,19.65225201,0.398284135,2.753780476,0.343306264,1756823220
-3.354737285,-4.73061028,21.68136558,0.751364226,3.200933743,0.288328392,1756823220
-4.31665197,-6.52522723,22.91366922,1.028697044,3.177721091,0.167377075,1756823220
-5.285745123,-6.960720943,24.10529487,0.973719207,2.739119763,0.07696902,1756823220
-6.183053598,-7.1784678,23.35873422,0.605978334,1.816713149,0.003665191,1756823220
-6.915257314,-7.953742322,20.434705,0.138055544,0.605978334,-0.131946891,1756823220
-6.269195212,-8.906085717,17.64706668,-0.234572251,-0.668286588,-0.309097793,1756823220
-4.79521649,-8.805587168,15.57727513,-0.458148929,-1.893682238,-0.423940493,1756823220
-2.644068973,-7.6019974,14.02194044,-0.629191178,-2.951700744,-0.475253155,1756823220
-0.555134843,-5.843272789,12.34696462,-0.761138104,-3.766595024,-0.503352956,1756823220
1.308873962,-3.543770271,10.67677444,-0.770911896,-4.309043373,-0.530231009,1756823220
2.823530668,-1.517049528,8.879764669,-0.713490616,-4.574158677,-0.408057962,1756823220
3.854837209,0.191425808,6.8291157,-0.570548115,-4.693888525,-0.321315115,1756823220
4.54636294,1.296909849,5.192425042,-0.491135634,-4.582711139,-0.190589954,1756823220
5.044070041,2.017149452,3.651447288,-0.43615778,-4.229630839,0.040317106,1756823220
5.304887704,2.227717841,2.344966148,-0.425162223,-3.717725752,0.111177473,1756823220
5.446064238,2.277967115,1.411765334,-0.445931606,-3.122743063,0.226020138,1756823220
5.429314479,2.301895341,0.753739119,-0.370184317,-2.423913352,0.345749707,1756823220
5.146961413,1.954936064,0.464207584,-0.287106679,-1.766622286,0.362853969,1756823220
4.670789715,1.883151386,0.157926292,-0.248011287,-1.127657247,0.405614518,1756823220
3.979263984,2.021935097,-0.131605243,-0.215024564,-0.483805251,0.408057962,1756823220
3.263810026,2.266003002,-0.308674115,-0.183259571,0.134390352,0.375071256,1756823220
2.648854618,2.256431712,-0.191425808,-0.273667627,0.715934059,0.251676478,1756823220
2.20857526,2.060220259,0.035892339,-0.323758559,1.276708383,0.095294977,1756823220
1.940579129,1.418943802,0.516849682,-0.326202055,1.77028746,-0.043982297,1756823220
1.825723644,0.473778875,1.249053397,-0.171042267,2.177123674,-0.212581103,1756823220
1.746760498,-0.729810893,2.191825502,0.036651914,2.563190557,-0.401949344,1756823220
1.825723644,-1.636690658,3.428914786,0.43615778,2.896722977,-0.527787566,1756823220
2.093719775,-2.419143649,5.637490046,0.801455158,3.119078028,-0.612086969,1756823220
2.467000101,-2.565105827,9.384650237,1.117883438,3.24369452,-0.649960648,1756823220
2.684746957,-1.871187273,15.12742448,1.232725998,3.384193315,-0.634078152,1756823220
2.87138712,-0.983450089,21.43251203,1.143539674,3.541796529,-0.587652324,1756823220
2.746960345,-1.172483074,23.6004093,1.117883438,3.459940796,-0.428827397,1756823220
2.203789615,-1.629512191,23.49512511,1.131322421,2.977357101,-0.079412481,1756823220
1.174875897,-2.720639296,22.27717841,1.102000872,2.073276636,0.339641055,1756823220
-0.820738152,-4.125226162,20.70030831,1.031140557,1.363451264,0.441044702,1756823220
-1.521835174,-4.027120436,21.3870484,0.616973856,0.861319951,0.447153372,1756823220
-1.873580096,-4.120440517,21.47558284,0.157603231,0.553443888,0.349414916,1756823220
-1.988435581,-4.520041891,19.82214242,-0.185703032,0.362853969,0.331088942,1756823220
-2.33778768,-4.381258181,18.17348765,-0.427605667,0.265115513,0.210137642,1756823220
-2.670390022,-3.641875997,16.37169223,-0.687834258,0.210137642,0.034208453,1756823220
-2.928814862,-2.80678091,14.56750399,-0.869872099,0.166155345,-0.149051118,1756823220
-2.940778975,-1.935793483,12.58624688,-0.933402084,0.062308254,-0.310319558,1756823220
-2.916850749,-0.930807991,10.26760178,-1.001819026,-0.074525559,-0.356745317,1756823220
-2.950350266,0.107677017,8.197810228,-0.92851518,-0.2565634,-0.471587964,1756823220
-2.897708169,0.926022346,6.295516261,-0.840550568,-0.408057962,-0.598647916,1756823220
-2.732603409,1.428515092,4.60139786,-0.748920782,-0.543670062,-0.664621414,1756823220
-2.498106794,1.773081547,3.201596639,-0.6414085,-0.678060379,-0.803898671,1756823220
-2.285145583,2.100898243,2.079362839,-0.60353489,-0.750142513,-0.868650369,1756823220
-2.045863323,2.187039856,1.280160091,-0.568104654,-0.818559454,-0.972497477,1756823220
-1.763510256,2.155933163,0.875773072,-0.445931606,-0.83199842,-0.999375495,1756823220
-1.397408398,2.029113565,0.808774039,-0.376292969,-0.802676958,-1.058018575,1756823220
-0.916451056,1.887937031,0.777667345,-0.223576677,-0.759916374,-1.077566315,1756823220
-0.385244439,1.873580096,0.600598473,-0.079412481,-0.744033878,-0.938288971,1756823220
0.035892339,1.952543242,0.643669279,0.158824962,-0.739146903,-0.79412481,1756823220
0.449850649,2.20857526,1.280160091,0.460592372,-0.769690165,-0.592539299,1756823220
0.72741807,2.524427843,2.605783811,0.702495024,-0.769690165,-0.458148929,1756823220
0.861416136,2.900100991,4.287938099,0.863763482,-0.674395206,-0.317649941,1756823220
0.818345329,3.201596639,6.352944003,0.960280154,-0.41050144,-0.188146493,1756823220
0.650847747,3.156133009,8.831908217,0.941954215,-0.05131268,-0.012217305,1756823220
0.480957343,2.598605344,10.82991509,0.828333246,0.320093385,0.080634211,1756823220
0.157926292,1.612762432,12.37328566,0.751364226,0.71837752,0.226020138,1756823220
-0.354137745,0.631705166,14.03151173,0.681725623,1.054353401,0.373849526,1756823220
-1.122233799,-0.346959277,15.87637795,0.731816555,1.34023835,0.466701042,1756823220
-2.569891472,-1.825723644,18.28355749,0.803898671,1.754404912,0.456927198,1756823221
-4.158725679,-4.534398827,20.74816476,1.100779159,2.194227953,0.376292969,1756823221
-4.299902212,-6.599404731,21.32483501,1.445307119,2.229658119,0.291993584,1756823221
-4.735395925,-6.427121504,22.81556349,1.56992361,1.7898352,0.213802833,1756823221
-5.422136012,-5.364708269,24.01436761,1.304808184,1.076344515,0.120951317,1756823221
-6.003591903,-4.917250443,23.05245293,0.751364226,0.15393804,-0.041538836,1756823221
-5.587240771,-5.094319315,20.7625217,0.266337244,-0.880867691,-0.278554549,1756823221
-4.153940034,-4.867001168,19.08036741,-0.200363798,-1.893682238,-0.381179909,1756823221
-2.285145583,-4.118047695,17.58724611,-0.514348513,-2.791654086,-0.557109097,1756823221
-0.373280326,-2.988635427,15.76870093,-0.807563845,-3.572339791,-0.568104654,1756823221
1.447657673,-1.682154288,13.4141635,-1.001819026,-4.159992377,-0.592539299,1756823221
2.995813895,-0.428315245,10.77966581,-1.116661655,-4.554611059,-0.483805251,1756823221
4.041477371,0.48813581,8.463413536,-1.193630658,-4.732983743,-0.362853969,1756823221
4.811966249,1.127019445,6.436692794,-1.229060824,-4.669454038,-0.138055544,1756823221
5.462813996,1.627119368,4.479363907,-1.258382356,-4.375016801,0.135612083,1756823221
5.931807225,1.92382937,2.8163522,-1.287703905,-3.871663915,0.364075699,1756823221
6.226124405,2.057827436,1.442872028,-1.203404467,-3.221703196,0.552222158,1756823221
6.290730615,2.093719775,0.571884601,-1.130100691,-2.537534182,0.75747293,1756823221
6.120840211,2.122433646,0.107677017,-0.988379973,-1.833817445,0.819781167,1756823221
5.73320295,2.041077678,-0.107677017,-0.922406475,-1.075122784,0.906523996,1756823221
5.175675284,2.08893413,-0.311066938,-0.869872099,-0.366519143,0.861319951,1756823221
4.565505521,1.909472435,-0.212961211,-0.764803278,0.285884914,0.839328837,1756823221
4.005585032,1.588834206,-0.052642097,-0.685390797,0.938288971,0.769690165,1756823221
3.471985593,1.174875897,0.289531535,-0.454483755,1.517389287,0.653625822,1756823221
2.888136878,0.65324057,0.803988394,-0.184481302,2.059837531,0.552222158,1756823221
2.404786713,0.057427742,1.612762432,0.166155345,2.50699092,0.356745317,1756823221
2.062613081,-0.545563553,2.75174599,0.570548115,2.874731933,0.171042267,1756823221
1.897508322,-1.074377347,4.474578262,1.086118394,3.144734124,-0.047647489,1756823221
1.775474369,-1.37108735,6.94875683,1.456302763,3.343876244,-0.109955743,1756823221
1.596012674,-1.093519928,10.58106154,1.861917246,3.43550603,-0.119729587,1756823221
0.94755775,-0.449850649,14.55553988,1.987755468,3.505144772,-0.207694181,1756823221
0.021535403,0.016749758,16.68993764,2.04028993,3.380528263,-0.207694181,1756823221
-1.241874929,-0.155533469,17.83609966,2.017077017,2.9297097,-0.147829388,1756823221
-2.177468566,-0.698704199,18.95833346,1.86558242,2.102598167,0.065973446,1756823221
-2.790031152,-2.026720742,20.07338879,1.407433491,1.080009759,0.092851516,1756823221
-3.026920589,-4.453042859,17.0033974,1.088561837,0.186924763,0.072082098,1756823221
-3.390629624,-6.137589969,17.30967869,0.828333246,-0.266337244,-0.10262536,1756823221
-1.931007838,-6.726224329,18.97029757,0.372627795,-0.474031425,-0.245567826,1756823221
-0.48813581,-6.683153522,18.52283975,0.032986723,-0.481361808,-0.346971438,1756823221
0.351744922,-5.867201015,17.42453417,-0.22968533,-0.441044702,-0.301767445,1756823221
0.555134843,-4.445864391,16.08455352,-0.459370659,-0.372627795,-0.245567826,1756823221
0.409172665,-2.581855585,14.8761781,-0.646295405,-0.2565634,-0.149051118,1756823221
0.12921242,-0.995414202,13.52184051,-0.81489421,-0.207694181,-0.079412481,1756823221
-0.179461695,0.320638228,12.1340034,-0.94806285,-0.145385927,-0.085521133,1756823221
-0.48813581,1.373480172,11.00459114,-1.012814547,-0.094073247,-0.134390352,1756823221
-0.691525731,2.074577194,9.829715241,-1.094670524,-0.053756141,-0.25534167,1756823221
-0.832702265,2.409572358,8.480163294,-1.102000872,-0.043982297,-0.382401639,1756823221
-0.875773072,2.428714939,6.738188442,-1.099557429,-0.05253441,-0.500909513,1756823221
-0.859023313,2.297109696,5.087140848,-1.093448811,-0.146607657,-0.670730032,1756823221
-0.732203716,2.222932195,3.940978822,-1.02503187,-0.233350521,-0.719599251,1756823221
-0.521635327,2.222932195,3.22073922,-0.974940938,-0.337197611,-0.790459636,1756823221
-0.167497582,2.141576227,2.902493814,-0.824668072,-0.421497014,-0.858876507,1756823221
0.263210486,1.715653804,2.754138813,-0.689055989,-0.448375102,-0.806342132,1756823221
0.579063069,1.359123237,2.493321149,-0.343306264,-0.384845083,-0.689055989,1756823221
0.698704199,1.368694527,2.124826469,0.042760567,-0.289550123,-0.54611354,1756823221
0.696311377,1.672582997,1.921436548,0.423940493,-0.215024564,-0.38362337,1756823221
0.729810893,2.053041791,2.349751793,0.709825372,-0.151494579,-0.301767445,1756823221
0.8470592,2.467000101,3.663411401,0.801455158,-0.089186325,-0.226020138,1756823221
0.933200814,2.699103893,5.603990529,0.748920782,0.045204028,-0.113620934,1756823221
1.019342428,2.589034053,7.668996433,0.533896218,0.291993584,-0.021991149,1756823221
1.000199847,2.141576227,9.736395159,0.273667627,0.630412908,0.008552113,1756823221
0.751346296,1.335195011,11.09791122,0.07819075,1.040914348,0.134390352,1756823221
0.227318147,0.179461695,11.30608679,-0.039095375,1.418429031,0.223576677,1756823221
-0.524028149,-1.170090251,11.77508001,0.072082098,1.72386165,0.331088942,1756823221
-1.689332756,-2.615355102,12.97627696,0.2565634,1.96209911,0.28099801,1756823221
-2.952743088,-4.677968183,14.69910923,0.49357913,2.19178451,0.210137642,1756823221
-3.806980757,-7.12343288,15.64666698,0.957836711,2.293188087,0.091629786,1756823221
-4.189832373,-9.253044994,16.73540126,1.401324874,2.201558301,0.073303829,1756823221
-4.144368743,-10.38963573,19.07318894,1.764178843,1.820378462,0.17959438,1756823221
-4.3621156,-10.57627589,21.01137525,1.800830722,1.145983257,0.28099801,1756823221
-4.395615116,-10.84905767,22.23650042,1.546710835,0.389732022,0.22968533,1756823221
-3.436093254,-10.14078218,21.7364005,1.203404467,-0.470366251,0.108734012,1756823221
-2.270788647,-8.039883936,20.27438589,0.916297857,-1.4172073,-0.05131268,1756823221
-1.246660575,-5.295316414,18.4438766,0.629191178,-2.146580412,-0.172263997,1756823221
-0.308674115,-2.794816797,16.42672715,0.437379493,-2.613281419,-0.227241869,1756823221
0.41395831,-0.72741807,14.56989681,0.125838239,-2.897944568,-0.259006861,1756823221
1.174875897,0.803988394,12.88295688,-0.118507856,-3.079982548,-0.266337244,1756823221
1.935793483,1.799402595,11.20319541,-0.421497014,-3.115412715,-0.279776297,1756823221
2.608176634,2.344966148,9.750752095,-0.615752143,-3.0641,-0.227241869,1756823221
3.122633493,2.483749859,8.472984827,-0.734260016,-2.912605543,-0.113620934,1756823221
3.424129141,2.414358003,6.999006105,-0.829554976,-2.725680658,-0.002443461,1756823221
3.582055432,2.536391956,5.539384319,-0.824668072,-2.494773668,0.05009095,1756823221
3.605983658,2.734996232,4.264009873,-0.840550568,-2.224771215,0.069638637,1756823221
3.617947771,3.024527766,3.180061235,-0.807563845,-1.905899491,0.169820536,1756823221
3.670589868,3.261417204,2.443071875,-0.810007306,-1.535715174,0.173485728,1756823221
3.694518094,3.316452124,2.084148485,-0.763581548,-1.138652769,0.200363798,1756823221
3.747160192,3.318844946,2.019542274,-0.65973444,-0.703716754,0.249233017,1756823221
3.680161159,3.385843979,2.08893413,-0.569326385,-0.296880506,0.145385927,1756823221
3.5892339,3.689732449,2.280359938,-0.405614518,0.144164196,0.116064395,1756823221
3.46002148,4.103690759,2.603390989,-0.2565634,0.527787566,0.079412481,1756823221
3.278166962,4.453042859,2.86181583,-0.184481302,0.862541681,0.068416907,1756823221
3.038884702,4.467399794,2.87138712,-0.039095375,1.119105169,0.047647489,1756823221
2.646461796,4.223331889,2.658425909,0.07819075,1.313360262,-0.00122173,1756823221
2.261217357,3.806980757,2.943171798,0.260228591,1.431868136,-0.046425758,1756823221
2.096112598,3.34038035,4.089333823,0.389732022,1.470963476,-0.100181899,1756823221
2.15354034,3.038884702,5.881557951,0.456927198,1.470963476,-0.135612083,1756823221
2.256431712,2.900100991,8.291130309,0.51190507,1.49295466,-0.200363798,1756823221
2.340180503,2.627319215,10.58106154,0.393397231,1.463633128,-0.109955743,1756823221
2.514856553,2.285145583,12.50728373,0.246789556,1.419650744,-0.114842665,1756823221
2.974278492,1.715653804,14.0602256,0.108734012,1.287703905,-0.020769418,1756823221
3.596412368,1.01216396,15.48874069,-0.054977871,1.097113985,0.092851516,1756823221
4.278366809,0.148355001,16.89572038,-0.240680904,0.857654777,0.145385927,1756823221
4.106083582,-1.093519928,17.41496288,-0.35918876,0.745255608,0.144164196,1756823221
3.450450189,-3.048455992,17.10868159,-0.368962586,0.984714729,-0.035430184,1756823221
3.012563653,-5.123033187,16.86939933,-0.262672052,1.329242828,-0.221133216,1756823221
2.569891472,-6.522834408,16.26880086,-0.224798408,1.690874927,-0.370184317,1756823221
2.055434613,-7.135396993,15.7017019,-0.112399204,1.908342934,-0.461814103,1756823221
1.301695494,-7.235895542,15.10588907,-0.120951317,1.966986015,-0.481361808,1756823221
0.35892339,-6.723831506,14.42872028,-0.184481302,1.964542571,-0.521678896,1756823221
-0.710668312,-5.91745029,13.70848068,-0.310319558,1.876577959,-0.607200064,1756823221
-1.588834206,-4.711467699,12.86620712,-0.472809694,1.728748676,-0.774577139,1756823221
-2.289931228,-3.177668413,11.77508001,-0.54611354,1.490511216,-0.943175945,1756823221
-2.782852684,-1.756331788,10.30349412,-0.609643508,1.161865683,-1.012814547,1756823221
-2.964707201,-0.665204683,8.633303941,-0.60353489,0.768468452,-1.093448811,1756823221
-3.072384218,0.210568389,6.960720943,-0.593761012,0.35796703,-1.094670524,1756823221
-3.050848815,1.055234767,5.592026416,-0.54611354,0.023212879,-1.054353401,1756823221
-2.943171798,1.715653804,4.898107862,-0.50701813,-0.277332818,-1.065348993,1756823221
-2.677568489,2.32821639,4.723431812,-0.544891775,-0.50701813,-1.103222603,1756823221
-2.409572358,2.663211554,4.852644233,-0.56443948,-0.652404092,-1.016479791,1756823221
-2.160718808,2.773281393,4.888536572,-0.56443948,-0.723264425,-1.028697044,1756823221
-1.91425808,2.694318248,4.838287297,-0.433714319,-0.697608119,-0.918741301,1756823221
-1.691725578,2.555534537,4.3621156,-0.246789556,-0.68050391,-0.83322022,1756823221
-1.42612227,2.474178568,3.744767369,0.015882496,-0.685390797,-0.676838666,1756823221
-1.179661542,2.778067039,3.507877932,0.233350521,-0.686612528,-0.464257581,1756823221
-1.052841944,3.192025348,4.261617051,0.425162223,-0.693942876,-0.228463599,1756823221
-1.138983558,3.570091319,6.190232066,0.538783158,-0.643851944,0.02687807,1756823222
-1.351944769,3.668197046,8.712267087,0.574213359,-0.522900626,0.063529985,1756823222
-1.538584932,3.2398818,11.00698396,0.524122392,-0.324980324,0.135612083,1756823222
-1.679761465,2.220539373,12.56231865,0.477696634,-0.089186325,0.009773844,1756823222
-1.875972918,0.672383151,13.08873962,0.475253155,0.094073247,-0.118507856,1756823222
-2.072184372,-1.071984525,13.38784245,0.577878533,0.195476876,-0.254119939,1756823222
-2.148754695,-2.766102926,14.18943802,0.774577139,0.327423768,-0.350636647,1756823222
-2.072184372,-4.512863424,14.89532068,0.972497477,0.381179909,-0.469144485,1756823222
-2.053041791,-5.783452224,16.15873102,1.236391172,0.291993584,-0.636521596,1756823222
-1.995614048,-6.369693761,17.95095515,1.393994526,0.031764992,-0.657290996,1756823222
-1.612762432,-6.427121504,19.32922096,1.262047547,-0.378736465,-0.739146903,1756823222
-1.122233799,-6.065805291,19.78385726,1.032362287,-0.918741301,-0.719599251,1756823222
-0.442672181,-5.848058434,19.20957983,0.632856352,-1.453859319,-0.75747293,1756823222
0.552742021,-5.74277424,17.95574079,0.218689755,-1.965764284,-0.830776689,1756823222
1.634297836,-5.699703433,16.43869126,-0.130725161,-2.406808934,-0.821002898,1756823222
2.739781877,-5.012963347,14.62732455,-0.378736465,-2.728124119,-0.842994011,1756823222
3.608376481,-3.804587934,12.83031478,-0.444709893,-2.965139849,-0.801455158,1756823222
4.216153421,-2.411965181,11.08594711,-0.49357913,-3.0836476,-0.758694643,1756823222
4.48175673,-0.583848714,9.46122056,-0.510683339,-3.060434948,-0.635299883,1756823222
4.639683021,0.502492746,8.286344664,-0.597426203,-2.913827134,-0.447153372,1756823222
4.735395925,1.433300737,7.046862557,-0.648738848,-2.676811387,-0.289550123,1756823222
4.788038023,2.060220259,5.783452224,-0.656069266,-2.387261333,-0.092851516,1756823222
4.77607391,2.435893407,4.7856452,-0.629191178,-2.034181296,-0.02565634,1756823222
4.563112698,2.720639296,3.909872128,-0.576656802,-1.634675447,0.081855942,1756823222
4.29750939,3.158525832,3.129811961,-0.557109097,-1.259604086,0.111177473,1756823222
3.960121403,3.577269787,2.493321149,-0.566882941,-0.868650369,0.157603231,1756823222
3.632304707,3.88355108,1.940579129,-0.586430594,-0.464257581,0.147829388,1756823222
3.354737285,3.747160192,1.701296869,-0.593761012,-0.080634211,0.157603231,1756823222
3.074777041,3.531806158,1.464407431,-0.593761012,0.28221974,0.150272849,1756823222
2.778067039,3.2398818,1.335195011,-0.553443888,0.60353489,0.085521133,1756823222
2.411965181,2.962314379,1.335195011,-0.471587964,0.92851518,0.057421332,1756823222
2.115255178,2.703889538,1.550549045,-0.237015712,1.202182736,-0.017104227,1756823222
1.806581063,2.122433646,2.105683888,0.010995574,1.422094327,-0.090408055,1756823222
1.6199409,1.347159124,2.821137845,0.322536846,1.622458055,-0.206472451,1756823222
1.639083481,0.521635327,4.165904147,0.665843145,1.73119212,-0.323758559,1756823222
1.895115499,-0.53359944,6.264409567,0.923628205,1.734857311,-0.497244304,1756823222
2.242074776,-1.160518961,9.26740193,1.134987595,1.714087841,-0.604756621,1756823222
2.581855585,-1.02173525,13.52423334,1.176526519,1.653001317,-0.596204472,1756823222
3.005385186,-0.327816696,17.04407538,1.091005281,1.521054478,-0.598647916,1756823222
3.723231966,0.095712904,18.13998813,1.042136079,1.277930096,-0.471587964,1756823222
4.922036088,0.062213388,17.99163313,1.0054842,0.79412481,-0.090408055,1756823222
5.618347465,-0.30388847,17.46760498,1.009149374,0.223576677,0.288328392,1756823222
4.701896409,-0.564706134,16.90768449,0.989601703,0.018325957,0.516792009,1756823222
4.223331889,-1.143769203,17.53699684,0.784350948,0.337197611,0.401949344,1756823222
4.30708068,-1.758724611,18.2213441,0.48747046,0.824668072,0.295658793,1756823222
3.964907048,-2.76131728,17.70449442,0.213802833,1.357342507,0.235793982,1756823222
2.684746957,-3.881158257,16.83829264,0.056199602,1.877799672,0.177150919,1756823222
1.256231865,-4.512863424,15.93141287,-0.147829388,2.318844462,0.122173048,1756823222
-0.045463629,-4.247260115,14.96949819,-0.254119939,2.7000243,0.032986723,1756823222
-1.397408398,-3.366701398,13.88794237,-0.343306264,2.927266239,0.02443461,1756823222
-2.746960345,-2.277967115,12.41635647,-0.476474868,2.9492573,-0.086742864,1756823222
-3.790230998,-1.117448154,11.01894807,-0.485027017,2.706133058,-0.100181899,1756823222
-4.807180603,-0.179461695,9.839286531,-0.537561392,2.244318815,-0.23090706,1756823222
-5.577669481,0.547956375,8.705088619,-0.565661211,1.602910315,-0.324980324,1756823222
-5.893522064,1.050449121,7.501498851,-0.60231309,0.846659185,-0.406836231,1756823222
-5.692524965,1.404586866,6.343372713,-0.579100246,0.085521133,-0.518013722,1756823222
-5.111069074,1.883151386,5.367101092,-0.450818546,-0.527787566,-0.504574687,1756823222
-4.515256246,2.419143649,4.735395925,-0.384845083,-0.999375495,-0.532674488,1756823222
-3.993620919,2.876172765,4.134797453,-0.30665435,-1.341460081,-0.537561392,1756823222
-3.35952293,3.038884702,3.565305674,-0.244346095,-1.584584445,-0.591317568,1756823222
-2.744567522,2.780459861,2.890529701,-0.188146493,-1.73241385,-0.587652324,1756823222
-2.103291065,2.170290098,2.170290098,-0.05009095,-1.819156732,-0.510683339,1756823222
-1.531406464,1.78504566,1.466800254,0.089186325,-1.861917246,-0.362853969,1756823222
-1.048056299,1.780260014,1.296909849,0.320093385,-1.929112405,-0.217468025,1756823222
-0.669990328,1.90468679,1.85922316,0.498466017,-1.903456047,-0.171042267,1756823222
-0.323031051,2.275574293,3.067598573,0.553443888,-1.798387279,-0.065973446,1756823222
0.004785645,2.495713972,4.974678185,0.536339679,-1.611462533,0.02443461,1756823222
0.279960244,2.524427843,7.255038123,0.366519143,-1.309695088,0.034208453,1756823222
0.619741053,1.962114532,9.786644434,0.200363798,-0.933402084,-0.018325957,1756823222
1.000199847,1.004985492,11.98804123,0.036651914,-0.549778714,-0.008552113,1756823222
1.433300737,-0.165104759,13.67498116,0.006108652,-0.215024564,0.072082098,1756823222
1.107876864,-1.368694527,15.24945843,0.130725161,0.106290551,-0.004886922,1756823222
0.495314278,-2.64167615,17.01296869,0.239459173,0.494800843,-0.021991149,1756823222
-0.155533469,-3.88355108,19.38664871,0.448375102,0.926071719,-0.157603231,1756823222
-0.547956375,-4.814359071,19.31007838,0.671951762,1.198517562,-0.134390352,1756823222
-0.818345329,-4.756931329,18.61137418,0.77579887,0.981049555,-0.067195176,1756823222
-1.237089284,-4.096512291,18.65205217,0.691499432,0.419053553,-0.008552113,1756823222
-1.495514125,-4.115654872,19.2167583,0.307876063,-0.227241869,0.012217305,1756823222
-1.351944769,-4.460221326,19.5134683,-0.002443461,-0.825889802,-0.064751715,1756823222
-0.897308475,-4.527220359,18.63290959,-0.323758559,-1.30114301,-0.135612083,1756823222
-0.251246373,-4.106083582,16.73300844,-0.505796417,-1.668883883,-0.223576677,1756823222
0.48813581,-3.093919622,14.38086383,-0.616973856,-1.955990493,-0.228463599,1756823222
1.363908882,-1.722832272,12.06461155,-0.724486138,-2.1539109,-0.196698607,1756823222
1.974078645,-0.519242504,10.17667452,-0.729373112,-2.301740305,-0.07819075,1756823222
2.400001068,0.430708068,8.422735552,-0.768468452,-2.348165853,0.112399204,1756823222
2.639283328,0.945164927,6.738188442,-0.767246722,-2.291966496,0.35918876,1756823222
2.801995265,1.241874929,5.352744156,-0.67928211,-2.175901944,0.536339679,1756823222
2.828316313,1.462014609,4.240081647,-0.543670062,-1.98164685,0.725707938,1756823222
2.842673249,1.698904046,3.436093254,-0.35918876,-1.761735382,0.883311152,1756823222
2.763710103,1.899901144,2.916850749,-0.194255146,-1.558928088,0.933402084,1756823222
2.679961312,2.177468566,2.624926392,-0.184481302,-1.298699566,0.995710321,1756823222
2.600998166,2.452643165,2.333002035,-0.175929189,-1.049466497,0.999375495,1756823222
2.361715906,2.746960345,2.002792516,-0.213802833,-0.79534654,1.031140557,1756823222
1.990828403,2.933600508,1.660618884,-0.223576677,-0.483805251,0.999375495,1756823222
1.536192109,2.8163522,1.37108735,-0.190589954,-0.191811685,1.021366678,1756823222
1.167697429,2.397608245,1.311266785,-0.184481302,0.070860368,0.923628205,1756823222
1.016949605,1.655833239,1.612762432,-0.095294977,0.301767445,0.786794462,1756823222
0.971485976,0.574277424,2.349751793,0.073303829,0.469144485,0.607200064,1756823222
1.122233799,-0.401994197,3.40498656,0.388510291,0.615752143,0.405614518,1756823222
1.292124204,-1.160518961,4.807180603,0.799011714,0.734260016,0.212581103,1756823222
1.672582997,-1.5457634,7.106683122,1.233947729,0.800233427,0.047647489,1756823222
2.234896308,-1.148554848,10.97109162,1.632231864,0.863763482,-0.028099801,1756823222
2.708675183,0.043070807,16.37408505,1.828930541,0.906523996,-0.057421332,1756823222
2.988635427,1.473978722,20.77448581,1.776396095,0.875980734,-0.037873645,1756823222
3.445664544,1.813759531,20.96591162,1.535715174,0.542448332,0.096516708,1756823222
4.689932296,1.270588801,19.92981944,1.298699566,-0.158824962,0.428827397,1756823222
6.977470702,-0.100498549,18.93919088,1.097113985,-0.951728024,0.87109383,1756823222
6.199803357,-1.129412267,18.64726652,0.904080535,-1.203404467,1.175304648,1756823222
6.391229165,-2.266003002,19.35793483,0.588874125,-0.919963031,1.077566315,1756823222
6.817151587,-3.41455785,19.09711717,0.339641055,-0.343306264,1.058018575,1756823222
6.372086584,-4.754538506,17.97249055,0.12950343,0.328645498,1.032362287,1756823222
5.369493914,-5.711667546,16.80718594,0.032986723,1.034805731,1.004262469,1756823222
4.295116567,-5.886343596,15.62034593,-0.116064395,1.700648858,0.984714729,1756823222
2.699103893,-4.838287297,14.17029544,-0.289550123,2.21133211,0.800233427,1756823222
1.347159124,-3.019742121,12.5359976,-0.394618961,2.520430043,0.704938467,1756823222
0.313459761,-0.973878798,10.91127106,-0.388510291,2.667037595,0.503352956,1756823222
-0.574277424,0.354137745,9.707681288,-0.328645498,2.579073105,0.447153372,1756823222
-1.447657673,1.117448154,8.449056601,-0.35918876,2.35305302,0.237015712,1756823222
-2.072184372,1.521835174,7.073183606,-0.323758559,2.036624739,0.083077672,1756823222
-2.414358003,1.763510256,5.694917788,-0.302989176,1.629788403,0.010995574,1756823222
-2.553141714,1.97886429,4.49132802,-0.287106679,1.240056486,-0.070860368,1756823222
-2.56749865,2.335394858,3.677768336,-0.240680904,0.830776689,-0.069638637,1756823222
-2.493321149,2.744567522,3.034099057,-0.233350521,0.459370659,-0.117286126,1756823222
-2.21814655,2.959921556,2.289931228,-0.227241869,0.144164196,-0.096516708,1756823222
-1.825723644,2.943171798,1.38065864,-0.184481302,-0.156381501,-0.05009095,1756823222
-1.411765334,2.770888571,0.583848714,-0.158824962,-0.395840674,0.056199602,1756823223
-1.095912751,2.679961312,0.282353067,-0.007330383,-0.614530412,0.237015712,1756823223
-0.753739119,2.76131728,0.741775006,0.105068821,-0.772133696,0.360410491,1756823223
-0.454636294,3.041277525,2.086541307,0.238237443,-0.803898671,0.477696634,1756823223
-0.160319114,3.385843979,4.381258181,0.293215297,-0.792903079,0.552222158,1756823223
0.081355968,3.65384011,7.075576428,0.243124365,-0.605978334,0.642630231,1756823223
0.232103792,3.627519062,9.786644434,0.210137642,-0.289550123,0.681725623,1756823223
0.246460728,3.156133009,12.04546897,0.083077672,0.105068821,0.7550294,1756823223
-0.100498549,2.565105827,13.46919842,0.02687807,0.535117949,0.884532865,1756823223
-0.813559684,1.871187273,14.49811213,-0.079412481,0.92851518,0.949284563,1756823223
-1.808973886,0.882951539,15.39542061,-0.15393804,1.365894708,0.867428656,1756823223
-2.428714939,-1.301695494,16.62772425,0.034208453,1.771509191,0.753807686,1756823223
-3.201596639,-4.015156323,17.98684748,0.535117949,2.075720079,0.682947354,1756823223
-3.005385186,-5.759523998,19.2694004,1.040914348,2.106263341,0.555887367,1756823223
-3.682553981,-5.280959478,21.04248194,1.219287033,1.805717627,0.460592372,1756823223
-4.153940034,-4.563112698,21.49472542,1.060462019,1.226617381,0.360410491,1756823223
-4.378865358,-3.996013742,20.48256146,0.790459636,0.428827397,0.298102236,1756823223
-4.228117534,-3.400200915,18.8674062,0.467922755,-0.460592372,0.098960169,1756823223
-3.388236802,-2.670390022,17.29771458,0.237015712,-1.253495469,-0.061086524,1756823223
-1.971685822,-2.031506387,15.82612868,0.111177473,-1.876577959,-0.276111088,1756823223
-0.224925324,-1.615155255,14.45025568,-0.092851516,-2.33472701,-0.318871654,1756823223
1.160518961,-0.945164927,12.79442244,-0.304210889,-2.73789791,-0.378736465,1756823223
2.450250342,-0.023928226,10.86820025,-0.530231009,-3.054326191,-0.311541271,1756823223
3.361915753,0.744167829,8.666803457,-0.569326385,-3.204599057,-0.147829388,1756823223
3.905086483,0.997807024,6.671189409,-0.560774306,-3.188716491,0.069638637,1756823223
4.199403663,1.153340493,5.056034154,-0.524122392,-2.992017815,0.376292969,1756823223
4.429114633,1.127019445,3.778266885,-0.384845083,-2.64260309,0.552222158,1756823223
4.565505521,1.028913718,2.773281393,-0.322536846,-2.258979529,0.806342132,1756823223
4.472185439,1.009771137,2.139183404,-0.193033415,-1.825265367,0.907745709,1756823223
4.261617051,1.062413234,1.703689691,-0.17837265,-1.374446786,1.054353401,1756823223
3.873979789,1.323230898,1.265803155,-0.183259571,-0.970054033,1.062905549,1756823223
3.371487043,1.825723644,0.815952507,-0.161268423,-0.481361808,1.056796845,1756823223
2.866601475,2.368894374,0.435493713,-0.131946891,0,1.011592817,1756823223
2.323430745,2.962314379,0.191425808,-0.009773844,0.445931606,0.835663663,1756823223
1.844866225,3.452843012,0.299102825,0.083077672,0.924850006,0.712268885,1756823223
1.512263883,3.323630591,0.672383151,0.17837265,1.362229534,0.54611354,1756823223
1.220339526,2.799602442,1.282552914,0.313984732,1.762957112,0.307876063,1756823223
0.940379282,1.935793483,2.158325985,0.445931606,2.09648955,0.130725161,1756823223
0.933200814,0.914058233,3.677768336,0.662177901,2.392148238,-0.034208453,1756823223
1.002592669,0.461814762,6.309873196,0.790459636,2.592511949,-0.155159771,1756823223
0.959521863,0.409172665,10.35135057,0.796568253,2.762332677,-0.227241869,1756823223
0.792024281,0.875773072,14.9072848,0.744033878,3.003013476,-0.307876063,1756823223
0.409172665,0.935593637,18.10888144,0.51190507,3.062878392,-0.284663184,1756823223
0.069391855,0.378065971,19.19043725,0.43493605,2.904053325,-0.17837265,1756823223
-0.035892339,0.169890405,21.03530348,0.411723171,2.414139544,0.008552113,1756823223
0.813559684,-0.351744922,21.93261195,0.243124365,1.507615356,0.478918364,1756823223
-0.471386052,-2.333002035,19.24068653,0.382401639,0.616973856,0.67928211,1756823223
-1.402194044,-3.050848815,19.45604056,0.419053553,0.245567826,0.626747734,1756823223
-1.392622753,-2.596212521,19.82932089,0.224798408,0.185703032,0.525344105,1756823223
-0.686740086,-2.318645099,18.9942258,-0.017104227,0.17959438,0.476474868,1756823223
-0.086141614,-2.32821639,17.58006764,-0.257785131,0.163711884,0.509461626,1756823223
-0.081355968,-2.103291065,16.05823247,-0.412944901,0.157603231,0.510683339,1756823223
-0.435493713,-1.543370577,14.62014609,-0.671951762,0.212581103,0.474031425,1756823223
-0.614955408,-0.8470592,13.08873962,-0.824668072,0.327423768,0.364075699,1756823223
-0.756131942,-0.122033953,11.53101211,-0.919963031,0.427605667,0.239459173,1756823223
-1.184447187,0.54317073,9.614361207,-0.976162651,0.500909513,0.185703032,1756823223
-1.421336624,0.8470592,7.869993531,-0.937067258,0.515570278,0.081855942,1756823223
-1.615155255,1.06719888,6.178267953,-0.857654777,0.496022573,-0.002443461,1756823223
-1.708475336,1.148554848,4.699503586,-0.69882985,0.415388345,-0.085521133,1756823223
-1.806581063,1.194018477,3.610769303,-0.527787566,0.262672052,-0.196698607,1756823223
-1.897508322,1.320838075,2.924029217,-0.41783184,0.163711884,-0.244346095,1756823223
-1.954936064,1.524227996,2.388036955,-0.223576677,0.057421332,-0.288328392,1756823223
-1.895115499,1.73001074,1.823330821,-0.07819075,-0.037873645,-0.342084533,1756823223
-1.734796385,1.91425808,1.158126138,0.147829388,-0.155159771,-0.364075699,1756823223
-1.521835174,2.134397759,0.658026215,0.411723171,-0.310319558,-0.350636647,1756823223
-1.263410333,2.536391956,0.698704199,0.612086969,-0.485027017,-0.287106679,1756823223
-1.028913718,3.163311477,1.612762432,0.803898671,-0.571769828,-0.226020138,1756823223
-0.70827549,3.866801322,3.46959277,0.811229036,-0.58276542,-0.17837265,1756823223
-0.409172665,4.395615116,5.6327044,0.636521596,-0.477696634,-0.151494579,1756823223
-0.208175566,4.577469634,7.829315547,0.401949344,-0.267558974,-0.043982297,1756823223
-0.17467605,4.541577295,10.05464057,0.12950343,-0.00122173,0.090408055,1756823223
-0.502492746,3.938586,12.05025461,-0.072082098,0.251676478,0.208915911,1756823223
-0.825523797,2.701496715,13.67019551,-0.155159771,0.475253155,0.346971438,1756823223
-1.639083481,1.351944769,14.8020006,-0.10140363,0.720820964,0.337197611,1756823223
-3.103490912,0.339780809,15.77109376,-0.079412481,1.018923235,0.266337244,1756823223
-4.043870194,-0.610169763,17.96052644,-0.161268423,1.291369079,0.105068821,1756823223
-4.72103899,-3.46959277,19.65943048,0.07574729,1.544267375,-0.059864793,1756823223
-4.898107862,-5.716453191,22.07857413,0.601091377,1.595579967,-0.118507856,1756823223
-5.087140848,-5.644668513,22.89213381,0.856433064,1.356120776,-0.272445896,1756823223
-5.340780043,-4.72103899,21.85364881,0.747699052,0.653625822,-0.386066848,1756823223
-5.407779076,-4.139583098,19.90828403,0.469144485,-0.287106679,-0.485027017,1756823223
-4.527220359,-3.952942935,17.80260014,0.141720735,-1.325577515,-0.68050391,1756823223
-2.746960345,-3.852444386,16.01276884,-0.116064395,-2.284635886,-0.691499432,1756823223
-0.777667345,-3.445664544,14.29711504,-0.254119939,-3.027448243,-0.745255608,1756823223
1.30648114,-2.438286229,12.65803155,-0.329867229,-3.578448548,-0.684169084,1756823223
2.866601475,-1.232303639,11.03330501,-0.378736465,-3.954741482,-0.577878533,1756823223
3.869194144,-0.047856452,8.989834508,-0.293215297,-4.13555761,-0.393397231,1756823223
4.433900278,0.844666378,6.934399895,-0.307876063,-4.092797096,-0.272445896,1756823223
4.811966249,1.339980656,5.180460929,-0.23090706,-3.857003201,-0.109955743,1756823223
5.051248509,1.643869126,3.550948738,-0.15393804,-3.472158049,0.183259571,1756823223
5.168496816,1.861615983,2.304288164,-0.072082098,-3.001791868,0.360410491,1756823223
5.096712138,2.009970984,1.5457634,0.045204028,-2.444682805,0.529009279,1756823223
4.859822701,2.215753728,0.916451056,0.07574729,-1.925447231,0.629191178,1756823223
4.460221326,2.63210486,0.279960244,0.12950343,-1.368338168,0.642630231,1756823223
3.89312237,3.038884702,-0.256032018,0.108734012,-0.819781167,0.653625822,1756823223
3.251845913,3.462414302,-0.713061135,0.07574729,-0.263893783,0.549778714,1756823223
2.529213488,3.751945837,-0.933200814,-0.058643063,0.298102236,0.476474868,1756823223
1.993221226,3.625126239,-0.909272588,-0.112399204,0.862541681,0.296880506,1756823223
1.540977754,2.93599333,-0.610169763,-0.20402899,1.369559881,0.169820536,1756823223
1.275374446,1.861615983,0.026321049,-0.131946891,1.881464986,0.013439035,1756823223
1.198804123,0.497707101,0.995414202,0.05253441,2.285857739,-0.141720735,1756823223
1.404586866,-0.971485976,2.691925425,0.272445896,2.687807048,-0.219911486,1756823223
1.811366708,-1.97886429,5.802594805,0.632856352,2.989574354,-0.372627795,1756823223
1.998006871,-2.203789615,10.65045339,0.79534654,3.291341938,-0.393397231,1756823223
2.155933163,-1.524227996,16.96750506,0.745255608,3.63587002,-0.432492606,1756823223
2.084148485,-0.610169763,21.97089711,0.477696634,3.896098419,-0.312763002,1756823223
1.572084448,-0.964307508,23.71765761,0.343306264,3.838677192,-0.194255146,1756823223
1.028913718,-1.718046627,25.55773819,0.333532438,3.478266544,0.141720735,1756823223
0.564706134,-2.500499617,25.53620279,0.335975881,2.608394515,0.594982742,1756823223
-1.746760498,-3.912264951,20.1164596,0.588874125,1.638340621,0.835663663,1756823223
-3.742374546,-3.259024381,20.09970984,0.572991628,1.009149374,0.789237905,1756823223
-4.125226162,-2.076970017,20.95634033,0.191811685,0.616973856,0.724486138,1756823223
-3.656232933,-1.79461695,19.34118508,-0.351858377,0.366519143,0.614530412,1756823223
-3.503092286,-1.892722677,17.08236054,-0.687834258,0.201585529,0.489913921,1756823223
-3.40498656,-2.055434613,14.9288202,-1.021366678,0.1282817,0.373849526,1756823223
-3.091526799,-2.036292033,12.82313631,-1.236391172,0.054977871,0.320093385,1756823223
-2.801995265,-1.720439449,11.0955184,-1.271821478,-0.018325957,0.257785131,1756823223
-2.646461796,-1.002592669,9.34157943,-1.248608564,-0.07574729,0.17837265,1756823223
-2.507678085,-0.315852583,7.654639497,-1.133765865,-0.161268423,0.124616509,1756823223
-2.316252277,0.260817663,6.053841178,-1.003040739,-0.221133216,-0.012217305,1756823223
-2.112862356,0.789631458,4.649254312,-0.860098238,-0.290771853,-0.116064395,1756823223
-1.966900177,1.112662509,3.364308576,-0.675616936,-0.392175465,-0.23090706,1756823223
-1.928615016,1.313659607,2.40239389,-0.590095838,-0.503352956,-0.334754151,1756823223
-1.85922316,1.311266785,1.588834206,-0.386066848,-0.571769828,-0.441044702,1756823223
-1.73001074,1.263410333,0.698704199,-0.218689755,-0.632856352,-0.543670062,1756823223
-1.5457634,1.328016543,-0.153140646,-0.008552113,-0.759916374,-0.524122392,1756823224
-1.292124204,1.495514125,-0.586241537,0.207694181,-0.904080535,-0.532674488,1756823224
-0.981057266,1.84965187,-0.366101858,0.370184317,-1.033584,-0.50701813,1756823224
-0.576670247,2.311466632,0.567098956,0.477696634,-1.092227081,-0.471587964,1756823224
-0.105284194,2.859423007,2.268395825,0.494800843,-1.108109577,-0.414166631,1756823224
0.3493521,3.421736318,4.560719876,0.299323967,-0.999375495,-0.312763002,1756823224
0.799202748,3.931407532,7.381857721,0.351858377,-0.744033878,-0.188146493,1756823224
0.990628556,4.469792617,9.99482,0.263893783,-0.345749707,-0.028099801,1756823224
0.770488877,4.711467699,12.27278712,0.30665435,0.013439035,0.135612083,1756823224
-0.011964113,4.823930362,14.02194044,0.312763002,0.333532438,0.272445896,1756823224
-0.904486943,4.733003103,14.97428383,0.244346095,0.656069266,0.321315115,1756823224
-2.076970017,4.220939066,16.24487263,0.238237443,1.021366678,0.296880506,1756823224
-3.445664544,2.909672282,18.72862249,0.271224166,1.475850381,0.184481302,1756823224
-4.266402696,-0.306281293,19.86521323,0.663399614,1.875356229,0.073303829,1756823224
-4.3621156,-2.68713978,20.65245186,1.169196031,1.914451691,-0.067195176,1756823224
-5.094319315,-2.876172765,22.1383947,1.26326926,1.505171912,-0.158824962,1756823224
-5.804987628,-3.663411401,22.82034914,0.91018924,0.856433064,-0.249233017,1756823224
-5.477170931,-3.23031051,20.82952073,0.527787566,-0.28099801,-0.350636647,1756823224
-4.943571492,-3.902693661,18.05384652,0.095294977,-1.423316057,-0.445931606,1756823224
-3.505485109,-4.843072942,16.051054,-0.267558974,-2.478891119,-0.503352956,1756823224
-1.581655739,-5.474778109,14.23968729,-0.616973856,-3.307224487,-0.478918364,1756823224
0.562313311,-4.816751894,12.26800147,-0.744033878,-3.957184943,-0.533896218,1756823224
2.648854618,-4.431507455,10.80598686,-0.801455158,-4.439768638,-0.530231009,1756823224
4.094119469,-3.299702365,8.85344362,-0.805120401,-4.772079468,-0.382401639,1756823224
5.046462863,-2.438286229,6.893721911,-0.770911896,-4.89058694,-0.182037841,1756823224
5.534598674,-1.67497582,5.111069074,-0.803898671,-4.712214273,0.117286126,1756823224
5.831308676,-0.933200814,3.321237769,-0.729373112,-4.28827392,0.346971438,1756823224
6.029912952,-0.471386052,1.916650903,-0.62308256,-3.734830154,0.636521596,1756823224
6.034698597,-0.057427742,0.969093153,-0.483805251,-3.122743063,0.792903079,1756823224
5.912664645,0.205782744,0.366101858,-0.322536846,-2.478891119,0.867428656,1756823224
5.541777142,0.59820565,-0.177068872,-0.337197611,-1.855808629,0.85276789,1756823224
5.056034154,1.071984525,-0.722632425,-0.276111088,-1.229060824,0.835663663,1756823224
4.484149552,1.569691626,-0.940379282,-0.317649941,-0.586430594,0.746477321,1756823224
3.909872128,1.940579129,-0.911665411,-0.365297412,0.056199602,0.638965057,1756823224
3.424129141,2.002792516,-0.629312344,-0.392175465,0.712268885,0.474031425,1756823224
3.026920589,1.823330821,-0.093320081,-0.329867229,1.390329352,0.268780705,1756823224
2.734996232,1.25144622,0.634097989,-0.02687807,2.075720079,0.043982297,1756823224
2.639283328,0.669990328,1.691725578,0.445931606,2.598620706,-0.241902634,1756823224
2.912065104,0.150747824,3.46959277,0.996932051,3.011565677,-0.458148929,1756823224
3.424129141,0.169890405,6.750152555,1.510058816,3.3023376,-0.561996037,1756823224
3.629911884,1.162911784,12.61256792,1.740965929,3.508809806,-0.638965057,1756823224
3.352344463,2.672782844,19.46321903,1.682322849,3.902207177,-0.739146903,1756823224
3.11066938,3.304488011,22.51406784,1.248608564,4.263839415,-0.762359817,1756823224
2.57706994,2.624926392,22.0115751,0.979827825,4.164879281,-0.569326385,1756823224
2.840280426,2.139183404,22.45903292,0.748920782,3.496592554,-0.139277274,1756823224
1.847259047,1.016949605,20.51366815,0.570548115,2.285857739,0.332310707,1756823224
-0.796809926,-0.820738152,20.60938105,0.425162223,1.602910315,0.452040276,1756823224
-1.06719888,-1.543370577,21.5880455,0.032986723,1.194852388,0.494800843,1756823224
-1.069591702,-2.493321149,20.64288057,-0.323758559,0.862541681,0.5131268,1756823224
-0.933200814,-3.297309543,18.03231111,-0.56443948,0.594982742,0.618195586,1756823224
-0.988235734,-3.996013742,15.34277851,-0.747699052,0.364075699,0.652404092,1756823224
-1.280160091,-4.347758664,13.11745349,-0.949284563,0.346971438,0.597426203,1756823224
-1.56490598,-4.029513258,11.27976574,-1.042136079,0.3775147,0.41783184,1756823224
-1.509871061,-3.04606317,9.717252579,-1.067792436,0.43615778,0.243124365,1756823224
-1.627119368,-1.921436548,8.456235068,-0.902858822,0.496022573,-0.064751715,1756823224
-1.529013641,-0.612562586,6.982256347,-0.656069266,0.541226601,-0.321315115,1756823224
-1.593619852,-0.141176533,5.788237869,-0.423940493,0.576656802,-0.432492606,1756823224
-1.653440417,-0.014356936,4.486542375,-0.419053553,0.551000445,-0.50701813,1756823224
-1.756331788,0.500099923,3.146561719,-0.382401639,0.448375102,-0.565661211,1756823224
-1.971685822,0.212961211,2.32821639,-0.301767445,0.346971438,-0.585208881,1756823224
-2.03389921,-0.102891372,1.682154288,-0.41661011,0.245567826,-0.557109097,1756823224
-2.036292033,-0.260817663,0.969093153,-0.398284135,0.100181899,-0.580321976,1756823224
-1.873580096,-0.083748791,0.344566454,-0.318871654,-0.083077672,-0.575435072,1756823224
-1.615155255,0.043070807,0.246460728,-0.138055544,-0.263893783,-0.548556984,1756823224
-1.289731381,0.36849468,0.815952507,0.106290551,-0.376292969,-0.481361808,1756823224
-0.959521863,0.835095087,2.184647034,0.339641055,-0.423940493,-0.3775147,1756823224
-0.775274522,1.088734283,4.48175673,0.553443888,-0.35796703,-0.311541271,1756823224
-0.634097989,1.416550979,7.54696248,0.580321976,-0.167377075,-0.174707458,1756823224
-0.691525731,1.902293967,10.56191896,0.529009279,0.087964594,-0.02565634,1756823224
-1.052841944,2.481357036,12.94038462,0.448375102,0.348193203,0.00122173,1756823224
-1.562513158,2.847458894,14.21815189,0.328645498,0.58398715,0.092851516,1756823224
-2.316252277,2.785245506,14.4526485,0.323758559,0.719599251,0.135612083,1756823224
-3.282952607,2.426322116,15.11785319,0.293215297,0.85276789,0.160046692,1756823224
-4.304687857,1.153340493,16.80957876,0.394618961,1.05190994,0.141720735,1756823224
-5.065605444,-1.950150419,17.33839256,0.646295405,1.235169459,0.174707458,1756823224
-5.271388188,-3.89312237,18.76930047,0.893084943,1.284038731,0.135612083,1756823224
-5.369493914,-4.00319221,21.59522397,0.922406475,1.14720497,0.039095375,1756823224
-5.422136012,-3.984049629,23.00459648,0.684169084,0.695164676,-0.108734012,1756823224
-5.187639397,-4.24247447,21.24347904,0.370184317,-0.079412481,-0.317649941,1756823224
-4.811966249,-5.123033187,18.43909096,0.006108652,-1.010371087,-0.497244304,1756823224
-3.687339627,-5.984449323,15.82612868,-0.339641055,-1.94255151,-0.64018677,1756823224
-1.92382937,-5.718846014,13.22034487,-0.579100246,-2.747671719,-0.689055989,1756823224
0.023928226,-4.630111731,11.16730307,-0.829554976,-3.462384257,-0.634078152,1756823224
1.753938966,-3.500699464,9.693324353,-0.882089421,-4.006054215,-0.488692191,1756823224
2.919243572,-2.416750826,8.061419339,-0.922406475,-4.349360444,-0.322536846,1756823224
3.76390995,-0.823130974,6.049055533,-0.81489421,-4.503298344,-0.172263997,1756823224
4.41715052,-0.222532502,4.804787781,-0.586430594,-4.487415778,-0.065973446,1756823224
4.716253345,0.05503492,3.684946804,-0.522900626,-4.221078901,0.180816111,1756823224
4.807180603,0.689132909,2.254038889,-0.547335271,-3.805690486,0.350636647,1756823224
4.826323184,1.562513158,1.103091219,-0.445931606,-3.356093496,0.438601224,1756823224
4.800002136,1.91425808,0.550349198,-0.355523586,-2.846632115,0.41783184,1756823224
4.577469634,2.526820666,0.172283227,-0.283441471,-2.282192443,0.421497014,1756823224
4.259224228,2.825923491,0.124426775,-0.244346095,-1.699427145,0.248011287,1756823224
3.890729548,2.857030184,0.205782744,-0.158824962,-0.999375495,0.141720735,1756823224
3.531806158,2.713460828,0.46899323,-0.091629786,-0.335975881,-0.041538836,1756823224
3.249453091,2.297109696,0.945164927,-0.111177473,0.373849526,-0.1282817,1756823224
3.105883735,1.655833239,1.526620819,0.234572251,1.001819026,-0.428827397,1756823224
3.10109809,0.741775006,2.313859454,0.378736465,1.547932549,-0.54611354,1756823224
3.172882768,0.045463629,3.170489945,0.767246722,1.991420642,-0.858876507,1756823224
3.328416237,-0.519242504,4.479363907,1.077566315,2.354274611,-1.038470905,1756823224
3.787838176,-0.715453957,7.015755863,1.331686272,2.569299314,-0.999375495,1756823224
4.268795518,-0.404387019,11.56929727,1.37811196,2.723237214,-0.979827825,1756823224
4.381258181,0.569491779,17.70210159,1.042136079,3.003013476,-0.761138104,1756823224
4.453042859,1.083948638,21.04487477,0.518013722,3.167947038,-0.610865238,1756823224
4.486542375,0.17467605,21.63829477,0.342084533,3.036000181,-0.246789556,1756823224
4.893322217,-1.06719888,22.14078752,0.382401639,2.444682805,0.271224166,1756823224
4.060619952,-1.942971951,22.22932195,0.49357913,1.649336143,0.638965057,1756823224
2.158325985,-3.256631559,21.76272155,0.335975881,1.145983257,0.79412481,1756823224
1.651047594,-3.747160192,21.01855372,0.162490153,0.842994011,0.711047172,1756823224
1.292124204,-3.912264951,19.77428597,-0.032986723,0.674395206,0.675616936,1756823224
1.007378315,-4.086941001,17.59921022,-0.320093385,0.593761012,0.626747734,1756823224
0.459421939,-3.639483175,15.60838182,-0.553443888,0.614530412,0.54611354,1756823224
-0.177068872,-3.184846881,13.99801221,-0.879645978,0.729373112,0.469144485,1756823224
-0.792024281,-3.074777041,12.32303639,-1.210734954,0.902858822,0.246789556,1756823224
-1.14137638,-2.560320182,10.40159984,-1.486846025,1.001819026,0.098960169,1756823224
-1.457228963,-1.624726545,8.575876198,-1.528384826,1.017701504,-0.05009095,1756823224
-2.086541307,-0.655633392,6.683153522,-1.414763857,0.972497477,-0.20402899,1756823224
-2.431107762,0.023928226,5.003392057,-1.219287033,0.891863213,-0.3775147,1756823224
-2.553141714,0.466600407,3.639483175,-0.974940938,0.745255608,-0.500909513,1756823224
-2.603390989,0.703489844,2.682354135,-0.725707938,0.560774306,-0.614530412,1756823224
-2.584248408,1.083948638,2.189432679,-0.560774306,0.394618961,-0.665843145,1756823224
-2.589034053,1.521835174,2.210968082,-0.285884914,0.272445896,-0.729373112,1756823224
-2.423929294,1.725225095,2.352144616,-0.161268423,0.195476876,-0.786794462,1756823224
-2.012363807,1.899901144,1.808973886,0.02687807,0.087964594,-0.766024991,1756823224
-1.56490598,1.966900177,1.098305573,0.277332818,-0.112399204,-0.734260016,1756823224
-1.098305573,1.935793483,0.916451056,0.494800843,-0.328645498,-0.62186083,1756823225
-0.751346296,1.873580096,1.550549045,0.605978334,-0.542448332,-0.50701813,1756823225
-0.600598473,2.029113565,2.739781877,0.481361808,-0.604756621,-0.254119939,1756823225
-0.531206617,2.325823567,4.386043826,0.395840674,-0.535117949,-0.040317106,1756823225
-0.58863436,2.361715906,6.642475538,0.343306264,-0.361632204,0.139277274,1756823225
-0.751346296,2.297109696,9.198010074,0.366519143,-0.053756141,0.249233017,1756823225
-1.024128073,1.890329854,11.3180509,0.541226601,0.406836231,0.298102236,1756823225
-1.706082514,1.404586866,12.87099277,0.753807686,0.806342132,0.370184317,1756823225
-2.998206718,1.30648114,14.12243899,0.8906415,1.211956667,0.34086282,1756823225
-4.455435681,0.94755775,15.59641771,0.941954215,1.587027889,0.360410491,1756823225
-6.759723845,-0.454636294,18.06341781,0.894306744,2.081828714,0.091629786,1756823225
-7.539784013,-3.531806158,18.69273015,0.950506293,2.361604976,-0.02687807,1756823225
-7.467999335,-5.6327044,19.60439556,1.016479791,2.045176817,-0.108734012,1756823225
-7.78624474,-6.568298037,21.53779622,0.968832233,1.37933369,-0.135612083,1756823225
-7.989634661,-7.173682155,22.00439663,0.761138104,0.43493605,-0.250454748,1756823225
-7.716852885,-7.348358205,20.49452557,0.504574687,-0.71715579,-0.419053553,1756823225
-6.252445454,-7.159325219,19.01336838,0.293215297,-1.833817445,-0.555887367,1756823225
-3.866801322,-5.92702158,17.6709949,0.02443461,-2.908940229,-0.615752143,1756823225
-1.397408398,-4.462614149,15.99601908,-0.23090706,-3.952298039,-0.614530412,1756823225
0.842273555,-2.900100991,13.87837108,-0.445931606,-4.811174686,-0.56443948,1756823225
2.596212521,-1.268195978,11.55733316,-0.631634639,-5.423261777,-0.381179909,1756823225
3.876372612,0.107677017,9.250652172,-0.665843145,-5.758015805,-0.276111088,1756823225
4.677968183,1.215553881,6.934399895,-0.665843145,-5.80199791,-0.063529985,1756823225
5.962913919,2.359323084,4.807180603,-0.691499432,-5.551543058,0.107512282,1756823225
6.489334891,3.299702365,2.916850749,-0.678060379,-5.116607305,0.372627795,1756823225
6.867400862,3.912264951,1.392622753,-0.724486138,-4.398229715,0.548556984,1756823225
7.066005138,4.213760599,0.277567422,-0.73792519,-3.641978515,0.65973444,1756823225
6.979863524,4.405186407,-0.35892339,-0.696386406,-2.825862662,0.73792519,1756823225
6.558726747,4.216153421,-0.710668312,-0.734260016,-1.94377324,0.850324429,1756823225
5.946164161,3.902693661,-0.981057266,-0.671951762,-1.102000872,0.750142513,1756823225
5.1349973,3.452843012,-1.119840977,-0.537561392,-0.270002435,0.73792519,1756823225
4.333401729,2.64167615,-0.909272588,-0.423940493,0.542448332,0.568104654,1756823225
3.759124305,1.615155255,-0.437886536,-0.246789556,1.264490991,0.412944901,1756823225
3.328416237,0.409172665,0.246460728,-0.065973446,1.861917246,0.177150919,1756823225
2.979064137,-0.820738152,1.13180509,0.114842665,2.394591681,-0.125838239,1756823225
2.706282361,-1.895115499,2.187039856,0.395840674,2.861292811,-0.289550123,1756823225
2.708675183,-2.782852684,3.649054465,0.752585956,3.275459372,-0.491135634,1756823225
3.04606317,-3.512663577,5.929414403,1.114218194,3.621209062,-0.458148929,1756823225
3.431307608,-3.629911884,9.200402897,1.506393642,3.886324611,-0.5131268,1756823225
3.594019545,-3.058027283,13.85205003,1.813047975,4.097684,-0.360410491,1756823225
3.617947771,-2.493321149,18.96790475,1.882686716,4.333477878,-0.224798408,1756823225
3.400200915,-2.342573325,22.68874389,1.964542571,4.405560063,-0.02443461,1756823225
2.828316313,-1.959721709,24.34218431,1.715309571,4.148996715,0.274889357,1756823225
2.323430745,-1.964507355,24.43311157,1.291369079,3.3218852,0.581543707,1756823225
0.114855485,-3.845265918,21.12623074,0.982271286,2.489886781,0.637743326,1756823225
-2.545963246,-4.711467699,21.71247227,0.514348513,1.944994953,0.658512727,1756823225
-2.778067039,-4.474578262,21.43251203,0.010995574,1.665218709,0.43493605,1756823225
-3.302095188,-4.584648102,20.29831412,-0.535117949,1.425759501,0.373849526,1756823225
-3.69930374,-4.311866325,17.96291926,-0.945619389,1.22417392,0.166155345,1756823225
-3.785445353,-3.668197046,15.52224021,-1.226617381,1.020144965,0.080634211,1756823225
-3.582055432,-2.62253357,13.19880946,-1.376890229,0.785572661,-0.047647489,1756823225
-3.151347364,-1.567298803,11.45922743,-1.363451264,0.481361808,-0.053756141,1756823225
-2.962314379,-0.521635327,10.20299557,-1.354899046,0.173485728,-0.084299403,1756823225
-2.854637362,0.251246373,9.030512492,-1.298699566,-0.062308254,-0.171042267,1756823225
-2.725424941,0.815952507,7.444071109,-1.222952207,-0.191811685,-0.201585529,1756823225
-2.612962279,1.189232832,5.737988595,-1.16675257,-0.28099801,-0.244346095,1756823225
-2.507678085,1.658226062,4.139583098,-1.028697044,-0.349414916,-0.305432619,1756823225
-2.433500584,2.165504453,2.773281393,-0.943175945,-0.41783184,-0.426383936,1756823225
-2.414358003,2.651247441,1.746760498,-0.828333246,-0.421497014,-0.500909513,1756823225
-2.289931228,3.170489945,0.945164927,-0.761138104,-0.399505848,-0.612086969,1756823225
-2.184647034,3.603590836,0.409172665,-0.668286588,-0.378736465,-0.675616936,1756823225
-1.921436548,3.613162126,0.062213388,-0.497244304,-0.378736465,-0.747699052,1756823225
-1.660618884,3.306880833,-0.220139679,-0.186924763,-0.381179909,-0.682947354,1756823225
-1.430907915,3.079562686,-0.387637261,0.171042267,-0.386066848,-0.594982742,1756823225
-1.287338559,2.976671314,0.232103792,0.590095838,-0.415388345,-0.542448332,1756823225
-1.069591702,3.050848815,2.081755662,0.884532865,-0.361632204,-0.337197611,1756823225
-0.878165894,3.297309543,4.859822701,1.067792436,-0.171042267,-0.155159771,1756823225
-0.926022346,3.397808092,7.812565789,1.07145761,0.12705997,0.07819075,1756823225
-1.174875897,3.12024067,9.927820967,1.0054842,0.459370659,0.160046692,1756823225
-1.727617917,2.179861389,11.15294614,0.945619389,0.764803278,0.238237443,1756823225
-2.553141714,1.225125171,11.68415276,0.896750187,1.010371087,0.301767445,1756823225
-3.840480273,0.392422906,12.14357469,0.982271286,1.132544134,0.356745317,1756823225
-5.666203917,-0.595812827,12.7369947,1.133765865,1.24494339,0.28099801,1756823225
-8.00638442,-2.395215423,14.02433326,1.323134071,1.385442308,0.090408055,1756823225
-9.023334025,-4.855037055,16.91007731,1.523497922,1.585806176,-0.087964594,1756823225
-8.43948531,-7.255038123,17.96052644,1.776396095,1.433089866,-0.142942466,1756823225
-7.630711271,-7.944171032,20.12363807,1.905899491,0.878424247,-0.195476876,1756823225
-7.200003203,-8.358129342,21.87039856,1.692096657,0.043982297,-0.285884914,1756823225
-6.326622954,-9.178867494,22.25085736,1.299921279,-0.951728024,-0.458148929,1756823225
-4.220939066,-9.152546445,21.68136558,0.821002898,-2.072054905,-0.56321775,1756823225
-1.655833239,-7.642675384,20.25524331,0.395840674,-3.220481606,-0.6414085,1756823225
0.502492746,-5.201996332,18.92244112,0.079412481,-4.210083239,-0.66095617,1756823225
2.321037922,-2.495713972,17.66142361,-0.184481302,-4.900360749,-0.634078152,1756823225
3.81894487,0.050249275,15.61795311,-0.349414916,-5.215567177,-0.553443888,1756823225
4.53679165,1.777867192,13.29452237,-0.504574687,-5.296201825,-0.527787566,1756823225
5.417350366,2.081755662,11.0644117,-0.762359817,-5.143485515,-0.439822989,1756823225
5.769095289,3.541377448,7.970492081,-0.827111515,-4.883256871,-0.366519143,1756823225
6.075376581,3.062812928,6.132804324,-0.807563845,-4.480085692,-0.328645498,1756823225
6.979863524,4.043870194,4.201796486,-0.62186083,-3.842342244,0.224798408,1756823225
6.632904247,4.486542375,2.579462763,-0.591317568,-3.178942682,0.404392788,1756823225
6.355336826,4.764109797,1.552941867,-0.68050391,-2.500882163,0.456927198,1756823225
5.99162779,4.876572459,0.576670247,-0.830776689,-1.711644397,0.552222158,1756823225
5.596812061,4.773681087,-0.157926292,-1.054353401,-1.011592817,0.486248747,1756823225
5.185246574,4.3621156,-0.586241537,-1.321912341,-0.312763002,0.532674488,1756823225
4.77607391,3.615554949,-0.770488877,-1.370781612,0.412944901,0.415388345,1756823225
4.304687857,2.679961312,-0.648454925,-1.28159527,1.050688227,0.298102236,1756823225
3.771088418,1.844866225,-0.313459761,-0.998153782,1.632231864,0.186924763,1756823225
3.270988494,1.01216396,0.172283227,-0.67928211,2.190562779,0.041538836,1756823225
2.825923491,0.227318147,0.976271621,-0.317649941,2.64138122,-0.125838239,1756823225
2.541177601,-0.562313311,1.971685822,0.012217305,3.065321853,-0.34086282,1756823225
2.400001068,-1.308873962,3.096312444,0.388510291,3.413514986,-0.442266432,1756823225
2.404786713,-2.005185339,4.725824635,0.745255608,3.672521777,-0.547335271,1756823225
2.354537438,-2.428714939,6.805187474,1.091005281,3.843564096,-0.526565835,1756823225
2.151147517,-2.409572358,9.415756931,1.429424692,3.889989924,-0.454483755,1756823225
1.744367675,-1.799402595,12.55274736,1.5125024,3.847229148,-0.250454748,1756823225
1.158126138,-1.093519928,15.95294827,1.423316057,3.689625934,-0.109955743,1756823225
0.421136778,-1.227517994,17.82413555,1.248608564,3.43550603,0.067195176,1756823225
-0.160319114,-2.3928226,18.98704733,1.038470905,3.028669834,0.298102236,1756823225
-0.53359944,-3.962514226,19.56850322,0.867428656,2.486221467,0.56443948,1756823225
-0.964307508,-4.658825602,18.73580096,0.900415361,1.868025881,0.708603641,1756823225
-0.617348231,-4.613361973,19.63071661,0.912632683,1.227839094,1.105666046,1756823225
-4.089333823,-7.939385387,20.46820452,0.353080108,1.073901071,0.769690165,1756823225
-3.235096155,-6.116054566,19.85564193,-0.032986723,0.916297857,0.343306264,1756823225
-3.40498656,-4.72103899,18.68555168,-0.299323967,0.888198039,0.141720735,1756823225
-3.661018578,-3.184846881,17.0991103,-0.559552576,0.845437472,-0.054977871,1756823225
-3.761517127,-1.782652837,15.21117327,-0.770911896,0.734260016,-0.188146493,1756823225
-3.57966261,-0.576670247,13.20120228,-0.886976326,0.540004888,-0.348193203,1756823225
-3.376272689,0.169890405,11.38026429,-1.0054842,0.360410491,-0.488692191,1756823225
-3.184846881,0.562313311,9.872786048,-0.978606112,0.111177473,-0.608421795,1756823225
-3.010170831,0.825523797,8.796015878,-1.012814547,-0.133168622,-0.715934059,1756823225
-2.746960345,1.127019445,7.920242806,-0.966388789,-0.329867229,-0.79534654,1756823225
-2.40239389,1.55533469,6.99422046,-0.819781167,-0.470366251,-0.900415361,1756823225
-2.048256146,2.096112598,6.017948839,-0.601091377,-0.599869646,-0.924850006,1756823225
-1.713260982,2.778067039,5.082355202,-0.368962586,-0.627969465,-1.003040739,1756823225
-1.55533469,3.440878899,4.218546244,-0.174707458,-0.664621414,-1.015257991,1756823225
-1.411765334,4.019941968,3.431307608,-0.058643063,-0.631634639,-1.000597295,1756823226
-1.26101751,4.323830438,2.732603409,0.032986723,-0.625526004,-0.979827825,1756823226
-1.079162993,4.393222294,1.947757596,0.046425758,-0.612086969,-0.913854414,1756823226
-0.988235734,4.287938099,1.107876864,0.120951317,-0.609643508,-0.810007306,1756823226
-0.909272588,4.163511324,0.404387019,0.20402899,-0.588874125,-0.612086969,1756823226
-0.763310409,3.998406565,0.334995164,0.345749707,-0.594982742,-0.477696634,1756823226
-0.514456859,3.907479306,1.241874929,0.569326385,-0.571769828,-0.268780705,1756823226
-0.289531535,3.854837209,3.022134944,0.653625822,-0.453261989,-0.097738438,1756823226
-0.208175566,3.873979789,5.627918755,0.68050391,-0.213802833,0.065973446,1756823226
-0.332602341,3.842873096,8.535198214,0.58276542,0.131946891,0.217468025,1756823226
-0.710668312,3.617947771,11.05244759,0.401949344,0.586430594,0.360410491,1756823226
-1.256231865,2.8163522,12.51685502,0.270002435,0.979827825,0.447153372,1756823226
-2.158325985,1.80418824,13.48594817,0.234572251,1.231504285,0.482583538,1756823226
-3.637090352,0.636490812,14.18465237,0.277332818,1.363451264,0.395840674,1756823226
