acc_x,acc_y,acc_z,gyro_x,gyro_y,gyro_z,timestamp
-3.4947144000000003,1.1010744000000001,8.53093296,-2.1,-36.119999,-28.559999,1770370254.754028
-3.31997868,0.9287323200000001,8.260451640000001,-4.48,-33.110001,-28.98,1770370254.762135
-3.22662672,0.7803266400000001,8.18146152,-6.23,-30.24,-26.040001,1770370254.770163
-3.1763602800000004,0.71330472,8.224547040000001,-6.51,-27.440001,-29.469999,1770370254.778204
-3.21226488,0.777933,8.32029264,-9.1,-25.27,-27.719999,1770370254.786099
-3.22662672,0.897615,8.365771800000001,-9.87,-24.360001,-28.35,1770370254.794114
-3.2673186000000003,0.9478814400000001,8.25327072,-11.69,-25.27,-27.299999,1770370254.802097
-3.17396664,0.91915776,8.07135408,-11.9,-28.700001,-23.870001,1770370254.81033
-3.08061468,0.74920932,7.922948400000001,-11.55,-30.66,-22.75,1770370254.818112
-2.9705072400000003,0.5601117600000001,8.1264078,-10.57,-34.23,-19.6,1770370254.826089
-2.83406976,0.5266008,8.70806232,-10.22,-33.880001,-18.690001,1770370254.834102
-2.66412132,0.42606792,9.41179248,-10.08,-30.309999,-15.96,1770370254.842105
-2.5827375600000004,0.29441772,10.08201168,-10.36,-25.27,-15.47,1770370254.850102
-2.50614108,0.12446928,10.510473240000001,-9.87,-21.139999,-14.35,1770370254.85811
-2.5013538,-0.0478728,10.65648528,-9.1,-19.389999,-11.48,1770370254.866117
-2.5109283600000003,-0.34707780000000005,10.5679206,-8.12,-18.76,-11.83,1770370254.874087
-2.55162024,-0.68458104,10.335737520000002,-6.93,-19.879999,-9.17,1770370254.882103
-2.60428032,-1.0340524800000002,10.1370654,-2.52,-19.879999,-10.71,1770370254.890098
-2.64018492,-1.33565112,10.120309920000002,0.91,-18.83,-8.12,1770370254.89815
-2.692845,-1.52714232,10.39318488,4.55,-16.030001,-5.6,1770370254.906287
-2.78619696,-1.6468243200000001,10.694783520000001,8.54,-15.26,-5.32,1770370254.914104
-2.8795489200000004,-1.67794164,10.874306520000001,12.6,-13.58,-4.97,1770370254.922101
-3.00641184,-1.5845896800000001,10.88866836,14.77,-14.21,-2.03,1770370254.930105
-3.08061468,-1.4122476000000002,10.874306520000001,19.879999,-14.84,-4.69,1770370254.938312
-3.10933836,-1.1609154000000002,10.86951924,19.879999,-16.73,-0.28,1770370254.946099
-3.15003024,-0.8210185200000001,10.711539000000002,20.860001,-19.110001,-3.99,1770370254.954103
-3.0901892400000004,-0.54335628,10.54877148,19.459999,-21.42,-5.81,1770370254.962107
-2.99683728,-0.23697036000000002,10.42908948,17.92,-23.379999,-4.9,1770370254.970265
-2.90587896,-0.026330040000000002,10.144246320000002,14.56,-27.860001,-7.0,1770370254.978118
-2.69523864,0.09335196000000001,9.797168520000001,9.87,-33.040001,-7.35,1770370254.986102
-2.4654492,0.08377740000000002,9.3711006,7.56,-37.869999,-10.15,1770370254.994083
-2.19496788,0.05026644,9.083863800000001,6.23,-42.77,-12.95,1770370255.002101
-1.71863352,0.02872368,9.01684188,4.41,-47.880001,-13.65,1770370255.010281
-1.23033096,0.02872368,9.21072672,4.97,-52.220001,-17.01,1770370255.01811
-0.69176196,0.05744736,9.44530344,4.2,-54.110001,-18.9,1770370255.026158
-0.1555866,0.08617104,9.514719,4.55,-56.0,-20.02,1770370255.034101
0.32553504,0.06462828000000001,9.47402712,6.65,-55.09,-20.860001,1770370255.042126
0.8234121600000001,0.09335196000000001,9.39024972,7.91,-52.639999,-21.35,1770370255.050121
1.3284702000000002,0.22021488,9.39024972,13.23,-47.669998,-24.5,1770370255.058245
1.7497508400000001,0.42367428,9.395037,14.42,-41.369999,-21.209999,1770370255.06634
2.1662442,0.7420284,9.46923984,17.639999,-32.200001,-22.959999,1770370255.074847
2.4774174,1.17048996,9.57934728,19.25,-20.16,-21.49,1770370255.082255
2.74311144,1.60852608,9.63200736,20.440001,-7.0,-19.040001,1770370255.090103
2.8364634000000004,2.01783852,9.63679464,21.209999,8.82,-16.870001,1770370255.098158
2.80295244,2.3290117200000005,9.703816560000002,20.23,24.5,-11.06,1770370255.106151
2.6258230800000004,2.50614108,9.907275960000002,17.780001,41.369999,-9.24,1770370255.114119
2.29071348,2.49177924,10.316588399999999,12.04,58.869999,2.03,1770370255.122105
1.735389,2.39603364,10.88148744,4.9,77.209999,8.68,1770370255.13011
0.99096696,2.4175764,11.31234264,-1.12,93.309998,14.35,1770370255.13818
0.045479160000000005,2.5851311999999997,11.20462884,-8.47,106.330002,21.280001,1770370255.146094
-1.01250972,2.91784716,10.699570800000002,-15.33,116.970001,18.83,1770370255.154109
-1.96996572,3.0854019600000004,10.14185268,-20.790001,124.389999,19.110001,1770370255.162218
-2.79816516,2.9417835599999997,9.69184836,-27.440001,127.82,17.15,1770370255.170178
-3.5928536400000004,2.4247573200000003,9.385462440000001,-29.4,129.220001,13.86,1770370255.178273
-4.28222196,1.6994844000000002,9.40221792,-30.870001,127.190002,10.92,1770370255.186102
-4.94047296,0.9071895600000001,9.4070052,-27.370001,122.639999,10.5,1770370255.194104
-5.471861039999999,0.41888700000000006,9.23466312,-23.1,113.400002,5.95,1770370255.202119
-5.9362272,0.10292652000000001,9.03838464,-18.690001,98.839996,3.99,1770370255.210125
-6.177984840000001,0.026330040000000002,8.89476624,-15.19,82.32,1.96,1770370255.218104
-6.31442232,-0.09095832000000001,8.868436200000001,-15.47,62.790001,1.75,1770370255.226092
-6.3192096,-0.42128064000000004,8.9641818,-13.65,43.119999,-1.61,1770370255.234091
-6.245006760000001,-1.0962871200000002,9.33280236,-12.25,28.84,-0.84,1770370255.242085
-6.21628308,-1.98911484,9.66551832,-11.76,20.51,-3.22,1770370255.250166
-6.223464,-2.6186421600000003,9.43333524,-8.12,15.54,-4.76,1770370255.258207
-6.185165759999999,-2.90587896,8.93545812,-5.11,16.030001,-5.88,1770370255.266088
-6.10856928,-2.84603796,8.5931676,0.91,15.75,-9.73,1770370255.274096
-6.0798456000000005,-2.7814096800000003,8.492634720000002,1.89,16.379999,-10.15,1770370255.282128
-6.00324912,-2.79577152,8.58838032,2.24,14.7,-15.12,1770370255.290096
-5.85963072,-2.90348532,8.64582768,-0.56,11.97,-17.43,1770370255.298182
-5.672926800000001,-3.0973701600000005,8.83971252,-0.35,8.19,-17.99,1770370255.30609
-5.49819108,-3.34152144,9.11019384,2.03,5.32,-20.370001,1770370255.314144
-5.29712532,-3.43247976,9.25859952,6.09,-0.49,-18.620001,1770370255.322097
-4.9787712,-3.4540225200000005,9.32083416,8.75,-5.04,-14.56,1770370255.330098
-4.74898176,-3.4540225200000005,9.32801508,11.2,-5.74,-13.72,1770370255.338111
-4.42105308,-3.0303482400000004,9.244237680000001,13.51,-7.56,-10.36,1770370255.346187
-4.21520004,-2.63539764,9.155673,13.51,-5.39,-6.09,1770370255.354097
-4.05482616,-2.1590632800000003,8.88519168,10.57,-4.13,-5.81,1770370255.362095
-3.8346112800000003,-1.8431028,8.636253120000001,8.19,0.21,-3.01,1770370255.370082
-3.6359391600000004,-1.6731543600000003,8.50460292,5.53,6.86,-1.96,1770370255.378109
-3.61918368,-1.63246248,8.41843188,3.92,14.49,3.78,1770370255.386127
-3.81306852,-1.5438978,8.37295272,3.43,22.049999,3.22,1770370255.394129
-4.1338162800000005,-1.5845896800000001,8.358590880000001,5.53,29.4,8.4,1770370255.402152
-4.66041708,-1.5438978,8.45912376,7.14,38.360001,12.95,1770370255.410116
-5.20856064,-1.50559956,8.5093902,8.89,41.93,16.450001,1770370255.418111
-5.768672400000001,-1.4098539600000002,8.41125096,11.34,44.799999,21.280001,1770370255.426101
-6.292879560000001,-1.21118184,8.24130252,12.53,46.549999,22.049999,1770370255.434251
-6.77878848,-0.8832531600000001,8.03784312,15.12,46.48,23.870001,1770370255.44212
-7.209643680000001,-0.66064464,7.913373840000001,15.89,45.009998,23.1,1770370255.450106
-7.5495405600000005,-0.27526860000000003,7.85832012,17.290001,42.349998,26.389999,1770370255.458112
-7.925342040000001,0.08856468,7.889437440000001,17.57,37.59,25.9,1770370255.466131
-8.24130252,0.46915344000000003,7.93731024,15.96,30.799999,22.959999,1770370255.474143
-8.4734856,0.75160296,8.01151308,16.1,21.209999,23.309999,1770370255.482103
-8.566837560000002,1.0149033600000001,8.10965232,16.450001,11.06,19.950001,1770370255.490118
-8.51417748,1.3117147200000001,8.14076964,16.52,-1.26,15.54,1770370255.49817
-8.41125096,1.50081228,7.985183040000001,17.219999,-14.0,13.51,1770370255.506103
-8.29874988,1.5630469200000001,7.5710833200000005,19.67,-23.940001,7.91,1770370255.514111
-8.07135408,1.6228879200000002,7.12347264,20.23,-31.780001,5.46,1770370255.522101
-7.82002188,1.78086816,6.86735316,19.879999,-38.360001,-4.9,1770370255.530154
-7.5878388,2.0561367600000002,7.0732062,20.02,-38.779999,-5.11,1770370255.538191
-7.3245384,2.39364,7.611775200000001,14.0,-35.98,-15.4,1770370255.546111
-7.0301206800000005,2.7359305199999997,8.14555692,8.19,-32.759998,-22.68,1770370255.554085
-6.589690920000001,3.0399228000000003,8.480666520000002,1.47,-31.99,-31.360001,1770370255.562106
-6.16122936,3.16678572,8.58359304,-4.76,-35.560001,-32.27,1770370255.570102
-5.77824696,3.1596048,8.5213584,-9.24,-41.16,-33.459999,1770370255.578205
-5.36654088,3.0040182,8.41603824,-11.76,-48.790001,-31.360001,1770370255.586148
-4.91174928,2.7048132000000003,8.4136446,-17.99,-56.209999,-30.379999,1770370255.59409
-4.49525592,2.3816718,8.554869360000001,-19.74,-61.599998,-30.73,1770370255.602103
-4.06440072,2.1207650399999998,8.79902064,-22.75,-65.169998,-27.370001,1770370255.610375
-3.7532275200000003,1.96757208,9.00966096,-24.639999,-65.379997,-26.32,1770370255.618159
-3.50907624,1.83352824,9.1317366,-24.99,-65.589996,-23.17,1770370255.626088
-3.3343405200000005,1.66118616,9.083863800000001,-29.75,-62.650002,-19.040001,1770370255.634183
-3.2721058800000002,1.32128928,8.777477880000001,-30.24,-61.110001,-18.690001,1770370255.642108
-3.21465852,0.9359132400000001,8.45912376,-30.450001,-58.450001,-15.75,1770370255.650088
-3.1380620400000003,0.3710142,8.468698320000001,-29.889999,-54.110001,-16.870001,1770370255.658111
-3.0925828799999997,-0.1436184,8.79183972,-25.549999,-47.880001,-15.4,1770370255.666102
-3.10694472,-0.69654924,9.27296136,-23.66,-39.48,-14.63,1770370255.67417
-3.23380764,-1.17048996,9.7660512,-17.43,-33.25,-16.24,1770370255.682105
-3.2984359199999997,-1.6444306800000001,10.2806838,-15.61,-28.77,-14.42,1770370255.69033
-3.34152144,-2.09922228,10.524835079999999,-9.8,-30.24,-16.24,1770370255.698169
-3.3367341600000002,-2.5157156400000003,10.63254888,-3.08,-33.669998,-15.47,1770370255.706099
-3.2984359199999997,-2.78619696,10.63015524,-0.21,-40.459999,-17.639999,1770370255.7141
-3.2457758400000003,-2.9106662400000003,10.5679206,6.65,-46.34,-15.68,1770370255.722114
-3.16199844,-3.0279546,10.40275944,6.3,-51.029999,-13.65,1770370255.730106
-3.0159864,-3.11412564,10.17536364,8.12,-53.970001,-13.3,1770370255.738111
-2.8388570399999997,-3.2553504,9.871371360000001,8.68,-54.110001,-12.74,1770370255.746096
-2.61146124,-3.3463087200000006,9.72296568,7.7,-57.119999,-14.21,1770370255.754088
-2.3864590800000003,-3.4420543200000004,9.617645520000002,9.8,-57.540001,-14.28,1770370255.762118
-2.09682864,-3.43247976,9.53147448,8.89,-57.119999,-16.66,1770370255.770107
-1.7784745200000003,-3.46599072,9.576953640000001,11.76,-57.540001,-16.24,1770370255.778109
-1.42660944,-3.4540225200000005,9.72057204,13.02,-55.650002,-18.9,1770370255.786102
-1.10346804,-3.37981968,10.050894360000001,15.19,-54.110001,-19.6,1770370255.794085
-0.7539966,-3.1332747600000004,10.323769320000002,19.040001,-54.669998,-20.58,1770370255.802187
-0.4906962,-2.76226056,10.4841432,17.780001,-54.18,-20.93,1770370255.810187
-0.21782124000000003,-2.43672552,10.39318488,14.07,-52.779999,-20.58,1770370255.818121
0.0239364,-2.16145692,10.263928320000002,13.3,-52.360001,-20.93,1770370255.826098
0.21064032000000002,-1.9149120000000002,10.15860816,11.76,-48.439999,-21.84,1770370255.834164
0.42367428,-1.5367168800000002,10.1370654,11.69,-45.43,-22.959999,1770370255.842098
0.59841,-1.0292652,10.055681640000001,10.92,-40.669998,-22.049999,1770370255.850094
0.69894288,-0.42367428,9.85461588,8.96,-35.77,-23.52,1770370255.858177
0.8138376,0.14601204,9.7181784,9.8,-28.559999,-21.700001,1770370255.866109
0.90479592,0.68936832,9.53626176,7.21,-19.6,-21.35,1770370255.874081
0.97899876,1.2399055200000002,9.45248436,10.78,-12.18,-16.450001,1770370255.882107
0.9478814400000001,1.6994844000000002,9.3830688,9.87,0.49,-12.18,1770370255.890104
0.85692312,1.8526773600000002,9.37588788,10.57,13.93,-5.81,1770370255.898151
0.59841,1.8071982,9.22508856,12.67,26.6,-1.54,1770370255.906211
0.26569404,1.7712936000000001,9.2035458,11.2,36.400002,3.29,1770370255.914109
-0.07659648000000001,1.8478900800000002,9.2274822,13.09,47.110001,5.11,1770370255.922122
-0.44282340000000003,1.9627848,9.2394504,13.79,54.669998,8.26,1770370255.930103
-0.8880404399999999,2.0824668,9.251418600000001,13.86,56.77,9.03,1770370255.938109
-1.35719388,2.3816718,9.244237680000001,14.21,58.240002,10.64,1770370255.946119
-1.80480456,2.6617276800000003,9.193971240000002,11.69,55.02,7.7,1770370255.954136
-2.19975516,2.77422876,9.12455568,9.66,49.77,7.0,1770370255.962224
-2.45826828,2.752686,9.23226948,3.78,44.380001,4.55,1770370255.970095
-2.65215312,2.55162024,9.45248436,3.01,36.189999,2.17,1770370255.978109
-2.74311144,2.29071348,9.6822738,-1.26,29.82,-0.63,1770370255.986111
-2.81492064,1.93645476,9.98626608,-4.13,24.15,-1.89,1770370255.994146
-2.9393899200000004,1.68990984,10.259141040000001,-5.6,21.139999,-5.32,1770370256.002222
-3.0973701600000005,1.4912377200000002,10.5080796,-8.68,22.75,-6.72,1770370256.010174
-3.2673186000000003,1.3428320400000002,10.730688120000002,-13.72,27.16,-10.01,1770370256.018179
-3.4947144000000003,1.18724544,10.98441396,-22.190001,31.92,-13.44,1770370256.026103
-3.73647204,0.91437048,10.7953164,-28.629999,35.139999,-14.07,1770370256.034219
-4.059613440000001,0.53378172,10.15860816,-31.219999,37.029999,-20.58,1770370256.042106
-4.30615836,0.09813924000000002,9.397430640000001,-31.290001,34.790001,-20.370001,1770370256.0501
-4.5120114000000004,-0.17234208,8.75593512,-29.469999,30.24,-26.110001,1770370256.058219
-4.62690612,-0.4069188,8.272419840000001,-27.299999,21.91,-26.950001,1770370256.06628
-4.67717256,-0.6008036400000001,7.920554760000001,-26.32,9.94,-29.469999,1770370256.074653
-4.667598,-0.58883544,7.98757668,-22.889999,0.07,-28.77,1770370256.082106
-4.54073508,-0.33989688,8.554869360000001,-24.219999,-10.71,-29.540001,1770370256.09011
-4.2846156,-0.08377740000000002,9.27296136,-24.15,-20.440001,-27.93,1770370256.098151
-3.98780424,-0.2513322,9.914456880000001,-24.360001,-28.700001,-24.08,1770370256.106096
-3.6024282000000003,-0.8952213600000001,10.287864720000002,-23.59,-36.259998,-20.370001,1770370256.114273
-3.20987124,-1.63246248,10.23041736,-21.07,-37.66,-12.53,1770370256.122097
-2.77422876,-2.20693608,10.00302156,-19.040001,-35.98,-5.46,1770370256.130103
-2.4319382400000005,-2.752686,9.73254024,-14.77,-31.43,0.28,1770370256.138108
-2.0776795200000002,-3.1691793600000002,9.507538080000002,-7.21,-25.27,6.16,1770370256.146133
-1.9412420400000001,-3.5186508,9.24663132,-0.42,-14.35,8.12,1770370256.154164
-1.84070916,-3.7508338800000005,9.10061928,8.33,-4.9,10.85,1770370256.162088
-1.82874096,-3.7628020800000006,9.0120546,14.42,5.74,14.56,1770370256.170103
-1.9196992800000001,-3.5186508,8.875617120000001,20.51,14.49,16.309999,1770370256.178106
-2.03698764,-3.16199844,8.93306448,23.870001,19.809999,17.43,1770370256.186115
-2.1590632800000003,-2.91784716,9.10061928,23.1,24.5,23.24,1770370256.194141
-2.3768845200000004,-2.71199412,9.27296136,22.469999,30.52,26.879999,1770370256.202108
-2.65454676,-2.6449722,9.3711006,19.110001,34.93,31.57,1770370256.210214
-3.0997638,-2.5109283600000003,9.57934728,20.58,39.830002,36.75,1770370256.218122
-3.67902468,-2.32661808,9.86897772,19.459999,45.57,38.43,1770370256.226125
-4.26546648,-2.0704986,10.21126824,18.76,46.830002,40.669998,1770370256.234101
-4.8949938,-1.8143791200000001,10.5080796,17.43,46.549999,39.48,1770370256.242118
-5.347391760000001,-1.58937696,10.491324120000002,15.19,42.700001,40.669998,1770370256.250094
-5.73037416,-1.4361840000000001,10.316588399999999,13.51,36.470001,40.459999,1770370256.258097
-6.043941,-1.2207564,10.03413888,13.44,30.450001,40.25,1770370256.266073
-6.1396866,-0.9646369200000001,9.6463692,9.66,22.959999,40.599998,1770370256.274097
-6.1660166400000005,-0.75160296,9.36631332,9.66,16.940001,39.34,1770370256.282112
-6.10617564,-0.49548348,9.170034840000001,7.35,12.18,36.540001,1770370256.290107
-5.94340812,-0.21782124000000003,8.97615,5.53,7.98,34.580002,1770370256.298144
-5.747129640000001,0.01436184,8.6530086,6.72,3.92,31.5,1770370256.306093
-5.55803208,0.2034594,8.3897082,8.89,1.54,26.67,1770370256.31426
-5.43835008,0.5026644,8.236515240000001,11.62,0.63,22.959999,1770370256.322097
-5.337817200000001,0.74442204,7.9923639600000005,15.54,1.26,18.34,1770370256.330095
-5.227709760000001,1.01969064,7.616562480000001,19.530001,0.42,15.82,1770370256.338105
-5.21095428,1.2829910400000002,7.283846520000001,25.549999,-1.26,10.36,1770370256.346092
-5.151113280000001,1.6994844000000002,7.195281840000001,27.65,-0.49,8.61,1770370256.354082
-5.21095428,2.01783852,7.16655816,26.110001,1.4,2.38,1770370256.362098
-5.33063628,2.33619264,7.44661404,24.43,5.74,-1.61,1770370256.370094
-5.40005184,2.64257856,8.15752512,20.440001,8.75,-8.47,1770370256.378105
-5.4311691600000005,2.8675807200000003,8.90912808,12.46,12.18,-13.65,1770370256.386094
-5.41920096,2.9585390400000002,9.31844052,2.31,7.56,-17.57,1770370256.394097
-5.1606878400000005,2.77901604,9.45248436,-4.06,-1.12,-20.16,1770370256.402108
-4.84233372,2.49177924,9.3471642,-10.99,-13.58,-21.280001,1770370256.410101
-4.43062764,2.17342512,9.17242848,-14.77,-29.889999,-15.68,1770370256.41827
-4.009347,1.9412420400000001,9.079076520000001,-17.360001,-45.990002,-11.41,1770370256.426101
-3.5976409200000004,1.5965578800000002,8.95460724,-18.549999,-55.02,-9.45,1770370256.434094
-3.16678572,1.25426736,8.65061496,-15.89,-65.309998,-4.2,1770370256.442607
-2.812527,1.0149033600000001,8.58359304,-12.74,-68.459999,-3.29,1770370256.450103
-2.4822046799999997,0.91676412,8.851680720000001,-8.68,-66.290001,-2.31,1770370256.458278
-2.1806060400000002,0.84495492,9.41657976,-12.25,-57.68,-6.09,1770370256.466101
-1.90055016,0.63670824,10.07004348,-14.42,-46.200001,-8.96,1770370256.474102
-1.6516116,0.2872368,10.67324076,-16.309999,-33.740002,-13.16,1770370256.482126
-1.5582596400000002,-0.14601204,11.09691504,-16.379999,-17.780001,-12.39,1770370256.490122
-1.5606532800000001,-0.6127718400000001,11.302768080000002,-12.74,-5.25,-17.57,1770370256.498162
-1.65400524,-1.15612812,11.40808824,-6.44,1.26,-15.19,1770370256.5061
-1.73778264,-1.7114526,11.350640880000002,-0.77,1.19,-18.48,1770370256.514166
-1.8957628800000002,-2.1710314800000003,11.28122532,7.21,-0.42,-15.89,1770370256.522098
-2.08486044,-2.50853472,11.190267,10.99,-4.69,-17.01,1770370256.530107
-2.3218308000000003,-2.70241956,11.04186132,14.42,-5.81,-13.86,1770370256.538114
-2.50374744,-2.9106662400000003,10.82164644,15.33,-8.26,-12.67,1770370256.546132
-2.6689086000000004,-3.02077368,10.62536796,15.54,-9.94,-11.13,1770370256.554185
-2.81013336,-3.09497652,10.462600440000001,14.35,-13.79,-8.05,1770370256.562126
-2.8077397200000003,-3.0854019600000004,10.321375680000001,13.65,-17.709999,-10.57,1770370256.570104
-2.75747328,-3.05667828,10.216055520000001,11.9,-22.33,-10.71,1770370256.578113
-2.6018866800000002,-3.00162456,10.019777040000001,10.22,-27.440001,-18.549999,1770370256.586096
-2.2739580000000004,-2.8244952000000003,9.914456880000001,9.45,-34.02,-20.370001,1770370256.594126
-1.93406112,-2.71438776,10.02695796,9.1,-39.060001,-25.200001,1770370256.602267
-1.5319296,-2.4774174,10.19930004,8.75,-40.669998,-26.18,1770370256.61019
-1.17767088,-2.2835325600000003,10.4003658,7.98,-40.880001,-27.790001,1770370256.618126
-0.83059308,-1.94842296,10.48893048,6.65,-42.349998,-28.91,1770370256.626082
-0.50984532,-1.6204942800000002,10.43387676,3.64,-42.700001,-27.790001,1770370256.634156
-0.24175764,-1.23511824,10.26632196,5.11,-42.91,-26.67,1770370256.64211
-0.0047872800000000005,-0.8497422000000001,10.03892616,4.34,-42.279999,-26.32,1770370256.650112
0.22500216000000003,-0.41649336000000003,9.761263920000001,10.08,-42.560001,-24.85,1770370256.658112
0.45239796,0.10532016000000001,9.52429356,11.34,-39.900002,-23.1,1770370256.666126
0.7061238000000001,0.7300602,9.37588788,13.65,-35.07,-19.809999,1770370256.67409
0.9263386800000001,1.31410836,9.287323200000001,20.16,-28.77,-15.61,1770370256.682102
1.15134084,1.84070916,9.251418600000001,20.860001,-19.6,-8.82,1770370256.690158
1.30214016,2.1111904800000003,9.38785608,22.190001,-7.7,-1.96,1770370256.698157
1.29735288,2.24284068,9.49317624,22.120001,8.96,4.34,1770370256.706145
1.2063945600000001,2.29071348,9.514719,20.09,24.43,11.13,1770370256.714135
1.0172970000000001,2.29071348,9.36631332,19.879999,38.849998,16.870001,1770370256.722105
0.6534637200000001,2.37449088,9.263386800000001,17.43,54.040001,19.040001,1770370256.7301
0.24175764,2.77422876,9.182003040000001,19.879999,63.209999,23.870001,1770370256.738142
-0.17952300000000002,3.3941815200000005,9.07428924,17.780001,69.580002,21.49,1770370256.746106
-0.6223464,3.95189964,9.18439668,8.89,73.220001,24.01,1770370256.754115
-1.02447792,4.179295440000001,9.47642076,2.52,74.339996,22.75,1770370256.762106
-1.40506668,3.9064204800000004,10.007808840000001,-10.36,73.989998,23.309999,1770370256.770227
-1.8718264800000002,3.1811475600000003,10.263928320000002,-21.209999,70.910004,23.52,1770370256.778144
-2.35294812,2.38406544,10.192119120000001,-28.91,70.349998,18.549999,1770370256.786089
-2.8867298400000005,1.57740876,9.828285840000001,-31.360001,69.650002,16.24,1770370256.794114
-3.42769248,1.00772244,9.423760680000001,-31.709999,71.120003,11.13,1770370256.802229
-3.88727136,0.67979376,8.95939452,-33.32,74.339996,4.97,1770370256.810098
-4.25110464,0.3710142,8.432793720000001,-32.34,76.650002,0.63,1770370256.818212
-4.42344672,0.11010744,8.02348128,-29.540001,76.93,-6.37,1770370256.826124
-4.61254428,-0.17712936,7.925342040000001,-27.790001,74.760002,-7.0,1770370256.834095
-4.78728,-0.59841,8.2341216,-22.68,69.370003,-12.04,1770370256.842105
-5.060154960000001,-1.18724544,8.87082984,-19.809999,64.889999,-11.69,1770370256.850105
-5.4814356,-1.8359218800000001,9.521899920000001,-15.33,61.25,-11.48,1770370256.858232
-5.93143992,-2.2978944,9.935999640000002,-9.31,56.07,-11.48,1770370256.866091
-6.374263320000001,-2.49417288,10.050894360000001,-5.11,52.150002,-9.03,1770370256.874082
-6.72373476,-2.59231212,9.93121236,1.47,45.709999,-8.61,1770370256.882113
-6.9295878,-2.64736584,9.75887028,3.22,37.939999,-7.49,1770370256.890162
-7.075599840000001,-2.65933404,9.74690208,4.13,27.790001,-7.35,1770370256.898183
-6.92480052,-2.64736584,9.754083,4.41,19.18,-7.84,1770370256.906101
-6.5872972800000005,-2.8244952000000003,9.715784760000002,3.85,9.24,-10.29,1770370256.914203
-6.163623,-3.00162456,9.66791196,6.65,-0.49,-8.61,1770370256.922097
-5.65377768,-3.0447100799999998,9.600890040000001,7.35,-7.07,-7.7,1770370256.930102
-5.153506920000001,-2.92981536,9.45727164,11.34,-15.05,-3.85,1770370256.93811
-4.70589624,-2.76226056,9.11258748,10.15,-16.17,-1.75,1770370256.946125
-4.29419016,-2.49656652,8.85407436,8.4,-17.57,-0.28,1770370256.954151
-3.82024944,-2.30746896,8.679338640000001,5.74,-13.93,4.06,1770370256.962108
-3.5066826,-2.18539332,8.538113880000001,2.31,-9.38,8.89,1770370256.970104
-3.37981968,-2.1064032,8.36337816,-1.47,0.35,10.57,1770370256.978109
-3.44444796,-2.1159777600000003,8.1862488,-3.15,10.08,16.450001,1770370256.986157
-3.71971656,-2.09922228,8.17188696,-3.78,21.629999,18.690001,1770370256.99417
-4.19365728,-2.00347668,8.43040008,-1.75,30.52,20.370001,1770370257.002123
-4.81600368,-1.8071982,8.72721144,-1.33,37.380001,22.049999,1770370257.010103
-5.33302992,-1.6276752,8.89476624,0.21,41.23,25.34,1770370257.018181
-5.80697064,-1.4792695200000001,8.794233360000002,1.33,40.810001,28.559999,1770370257.026097
-6.20431488,-1.32368292,8.60752944,2.31,37.73,31.360001,1770370257.034121
-6.47718984,-1.0149033600000001,8.4734856,5.74,32.41,33.389999,1770370257.042108
-6.74527752,-0.5912290800000001,8.31550536,7.14,29.190001,34.860001,1770370257.050113
-6.908045040000001,-0.25372584000000004,8.12401416,7.91,22.959999,38.43,1770370257.05821
-7.1162917199999995,0.23697036000000002,7.92773568,7.98,17.99,39.48,1770370257.066907
-7.28624016,0.6702192000000001,7.98039576,6.3,14.84,36.68,1770370257.074257
-7.36283664,1.04602068,8.045024040000001,8.54,12.74,35.07,1770370257.082125
-7.4633695200000005,1.35719388,8.150344200000001,8.4,8.96,33.32,1770370257.090107
-7.62613704,1.6204942800000002,8.224547040000001,12.25,3.08,28.77,1770370257.098242
-7.76975544,1.90055016,8.150344200000001,10.43,-4.69,24.639999,1770370257.106101
-7.90379928,2.1207650399999998,7.717095360000001,11.41,-12.39,19.459999,1770370257.114229
-7.922948400000001,2.22847884,7.161770880000001,12.11,-21.559999,14.0,1770370257.122107
-7.87028832,2.333799,6.62559552,11.97,-27.860001,8.89,1770370257.130108
-7.767361800000001,2.5157156400000003,6.42213612,14.63,-35.209999,1.75,1770370257.138107
-7.68837168,2.96093268,6.905651400000001,11.69,-36.68,-4.55,1770370257.146105
-7.4920932,3.4779589200000003,7.66682892,4.13,-38.57,-14.0,1770370257.154233
-7.13065356,3.84418584,8.10486504,-5.46,-42.700001,-19.389999,1770370257.162099
-6.62320188,4.0213152,8.272419840000001,-14.77,-48.580002,-24.5,1770370257.170099
-6.01282368,4.02370884,8.47827288,-22.049999,-58.66,-25.83,1770370257.178104
-5.3449981200000005,3.9566869200000006,8.624284920000001,-30.59,-69.300003,-26.18,1770370257.186079
-4.64844888,3.7987066800000004,8.820563400000001,-36.82,-81.410004,-22.68,1770370257.194623
-4.0213152,3.6143964,8.91152172,-43.540001,-92.050003,-22.68,1770370257.202109
-3.4229052,3.2553504,8.91391536,-47.25,-99.959999,-19.040001,1770370257.210103
-2.7718351200000004,2.81731428,8.70327504,-48.02,-105.279999,-14.42,1770370257.218164
-2.20932972,2.20693608,8.41603824,-51.52,-107.029999,-10.57,1770370257.226099
-1.71623988,1.46490768,8.167099680000002,-48.02,-105.699997,-10.85,1770370257.234096
-1.22793732,0.54335628,8.260451640000001,-42.07,-98.0,-9.24,1770370257.242127
-0.84016764,-0.14840568,8.660189520000001,-35.91,-84.07,-9.94,1770370257.2501
-0.48112164,-0.7851139200000001,9.349557840000001,-29.120001,-64.330002,-10.85,1770370257.258114
-0.19388484,-1.3524066000000001,10.16339544,-21.42,-45.849998,-11.83,1770370257.26609
-0.0718092,-1.88618832,10.87670016,-14.14,-29.120001,-17.57,1770370257.274094
-0.03111732,-2.4056082,11.37697092,-7.42,-14.35,-18.690001,1770370257.28208
-0.13404384000000003,-2.9106662400000003,11.63787768,0.0,-2.03,-21.49,1770370257.290123
-0.31356684,-3.3941815200000005,11.67138864,6.16,5.6,-20.16,1770370257.298248
-0.5481435600000001,-3.8058876000000006,11.56846212,10.22,10.5,-17.360001,1770370257.306179
-0.9335196,-4.12184808,11.477503800000001,16.309999,14.63,-15.33,1770370257.314263
-1.3404384000000003,-4.1769018,11.317129920000001,17.219999,16.17,-11.48,1770370257.322101
-1.75453812,-4.15775268,11.10409596,16.52,17.85,-7.0,1770370257.330092
-2.1159777600000003,-4.1338162800000005,10.77856092,13.23,16.799999,-3.85,1770370257.338169
-2.41518276,-4.10269896,10.46499408,13.44,14.84,-7.56,1770370257.3461
-2.6258230800000004,-4.0476452400000005,10.103554440000002,9.24,13.3,-5.46,1770370257.354093
-2.76704784,-3.9016332000000005,9.68466744,5.32,9.52,-8.12,1770370257.362093
-2.7359305199999997,-3.7508338800000005,9.423760680000001,1.75,5.74,-11.06,1770370257.370109
-2.5851311999999997,-3.6048218400000005,9.31844052,1.33,2.52,-11.41,1770370257.378101
-2.49177924,-3.46359708,9.37588788,2.52,-1.82,-14.77,1770370257.386089
-2.27635164,-3.2481694800000005,9.459665280000001,1.47,-3.29,-15.96,1770370257.394179
-2.10879684,-2.96571996,9.46923984,3.99,-6.79,-15.33,1770370257.402107
-2.01544488,-2.63539764,9.51232536,3.01,-8.26,-17.360001,1770370257.410099
-1.8694328400000002,-2.2955007600000004,9.490782600000001,4.83,-10.36,-18.83,1770370257.41813
-1.7210271600000002,-1.9029438000000003,9.54822996,6.86,-11.06,-17.43,1770370257.426108
-1.5678342,-1.4002794,9.545836320000001,9.45,-11.69,-21.629999,1770370257.434179
-1.4840568,-0.85213584,9.51232536,13.3,-12.95,-21.700001,1770370257.442098
-1.42182216,-0.14840568,9.423760680000001,17.08,-15.33,-20.02,1770370257.450118
-1.32368292,0.53138808,9.3591324,20.860001,-13.58,-19.809999,1770370257.45811
-1.23511824,1.2590546400000002,9.294504120000001,25.620001,-11.34,-14.28,1770370257.466132
-1.17527724,1.8670392,9.294504120000001,26.110001,-6.16,-12.88,1770370257.474107
-1.15373448,2.3170435200000004,9.349557840000001,28.35,-1.26,-6.02,1770370257.482099
-1.10825532,2.53965204,9.42854796,26.389999,6.37,0.21,1770370257.490104
-1.12740444,2.59470576,9.52908084,26.67,13.93,4.2,1770370257.498192
-1.15373448,2.6808768000000005,9.56737908,23.66,21.07,10.5,1770370257.506159
-1.30214016,2.82688884,9.605677320000002,23.17,27.93,13.16,1770370257.514105
-1.5606532800000001,3.13088112,9.6583374,22.68,31.5,21.07,1770370257.522202
-1.75693176,3.54019356,9.617645520000002,20.440001,31.360001,20.790001,1770370257.53018
-1.8790073999999999,3.82024944,9.48120804,16.73,30.450001,23.66,1770370257.538105
-1.9029438000000003,3.7436529600000004,9.37588788,10.29,26.040001,24.85,1770370257.546096
-1.95799752,3.37263876,9.39982428,4.62,22.190001,22.4,1770370257.554163
-1.9173056400000001,2.87715528,9.533868120000001,-1.54,18.620001,21.280001,1770370257.562105
-1.9795402800000002,2.3098626,9.66073104,-6.58,18.76,15.68,1770370257.570111
-2.06092404,1.88858196,9.6104646,-11.34,22.610001,14.42,1770370257.578109
-2.23087248,1.58698332,9.48120804,-13.44,28.07,9.52,1770370257.586094
-2.44869372,1.48645044,9.39982428,-19.18,34.93,6.58,1770370257.594088
-2.67130224,1.50081228,9.38785608,-20.02,44.240002,0.98,1770370257.602119
-2.9106662400000003,1.4361840000000001,9.33998328,-24.01,52.990002,-3.99,1770370257.610101
-3.0638592,1.0986807600000001,9.30168504,-24.360001,58.450001,-8.96,1770370257.618129
-3.21226488,0.40213152,9.35673876,-24.639999,62.580002,-12.6,1770370257.626084
-3.36067056,-0.50984532,9.28253592,-19.32,63.77,-12.39,1770370257.634087
-3.71971656,-1.24948008,9.170034840000001,-10.71,64.050003,-10.43,1770370257.6421
-4.1649336,-1.7832618,9.04077828,-2.38,64.889999,-5.88,1770370257.650202
-4.6316934000000005,-2.11358412,9.06471468,7.56,64.889999,-5.25,1770370257.658111
-5.06494224,-2.3864590800000003,9.05035284,12.95,64.68,-3.85,1770370257.666095
-5.469467400000001,-2.5252902,9.10540656,17.780001,62.439999,-4.27,1770370257.674211
-5.84766252,-2.5588011600000002,9.18679032,18.690001,63.0,-3.99,1770370257.682093
-6.10138836,-2.54443932,9.380675160000001,18.969999,61.669998,-5.46,1770370257.690084
-6.2091021600000005,-2.60428032,9.49317624,19.32,56.139999,-6.79,1770370257.698184
-6.24021948,-2.6808768000000005,9.545836320000001,16.24,51.450001,-4.2,1770370257.706106
-6.180378480000001,-2.7598669200000003,9.5386554,14.21,43.259998,-4.34,1770370257.714206
-6.082239240000001,-2.88912348,9.404611560000001,11.34,34.720001,0.98,1770370257.722119
-5.964950880000001,-2.91784716,9.095832000000001,4.41,25.83,4.55,1770370257.730117
-5.83808796,-2.88912348,8.74396692,0.42,17.92,9.94,1770370257.73815
-5.6035112400000004,-2.86279344,8.44236828,-5.25,11.41,15.33,1770370257.746102
-5.39047728,-2.88194256,8.32507992,-10.85,9.73,19.67,1770370257.754146
-5.2899444,-2.95375176,8.1264078,-13.65,10.71,28.209999,1770370257.762148
-5.335423560000001,-2.9585390400000002,7.96603392,-15.54,15.05,30.73,1770370257.77011
-5.54606388,-2.85321888,7.901405640000001,-14.35,22.469999,35.419998,1770370257.778121
-5.9505890400000006,-2.70960048,8.021087640000001,-13.93,27.16,36.540001,1770370257.786093
-6.44607252,-2.49177924,8.260451640000001,-11.97,34.860001,40.25,1770370257.794081
-6.967886040000001,-2.22369156,8.444761920000001,-11.97,37.869999,43.259998,1770370257.802231
-7.420284,-1.96757208,8.47827288,-8.96,39.060001,46.060001,1770370257.810097
-7.8846501600000005,-1.78086816,8.37534636,-6.02,36.610001,47.599998,1770370257.818428
-8.2341216,-1.3907048400000002,8.236515240000001,-3.92,31.92,49.209999,1770370257.826178
-8.50220928,-0.93112596,8.021087640000001,-2.8,27.02,48.299999,1770370257.834125
-8.6649768,-0.4667598,7.7553936000000006,-0.21,17.290001,48.790001,1770370257.842099
-8.7726906,-0.06223464,7.57826424,-0.35,8.82,48.790001,1770370257.850097
-8.75354148,0.42367428,7.496880480000001,0.98,0.0,46.549999,1770370257.858177
-8.69130684,0.8856468000000001,7.7649681600000005,3.43,-7.14,43.959999,1770370257.866107
-8.6051358,1.35958752,8.021087640000001,3.01,-13.79,37.240002,1770370257.874084
-8.492634720000002,1.8071982,8.29156896,1.68,-19.6,33.599998,1770370257.882105
-8.42321916,2.13991416,8.32747356,-1.12,-24.43,29.190001,1770370257.890098
-8.30832444,2.28831984,8.27960076,-2.87,-33.669998,24.08,1770370257.898222
-8.224547040000001,2.4343318800000002,8.2819944,-5.67,-43.540001,20.860001,1770370257.906132
-8.068960440000001,2.48459832,8.29874988,-9.73,-53.48,14.35,1770370257.914104
-7.83438372,2.3816718,8.21975976,-11.76,-65.519997,14.42,1770370257.922121
-7.48251864,2.09682864,7.501667760000001,-13.23,-74.970001,12.95,1770370257.930159
-7.066025280000001,1.68033528,6.30245412,-5.81,-83.790001,13.72,1770370257.93826
-6.6638937600000006,1.59895152,5.63462856,-0.84,-87.919998,10.92,1770370257.946513
-6.3192096,2.0106576,6.1444738800000005,-1.12,-84.559998,4.41,1770370257.954121
-5.9960682,2.73114324,7.45140132,-9.31,-75.739998,-3.71,1770370257.962099
-5.6154794400000005,3.2912550000000005,8.51417748,-25.200001,-68.879997,-12.32,1770370257.970109
-5.17744332,3.38460696,8.47827288,-38.990002,-65.309998,-19.809999,1770370257.978211
-4.81600368,3.20987124,8.08810956,-44.869999,-70.349998,-20.02,1770370257.98615
-4.54312872,2.92981536,7.901405640000001,-47.040001,-80.220001,-20.58,1770370257.994092
-4.22956188,2.8244952000000003,7.958853,-49.84,-91.559998,-19.32,1770370258.002113
-3.76758936,2.64736584,8.13358872,-50.68,-99.260002,-17.01,1770370258.010116
-3.30801048,2.41997004,8.487847440000001,-52.57,-105.209999,-13.3,1770370258.018141
-2.78619696,2.09682864,8.81338248,-53.130001,-109.199997,-9.24,1770370258.026103
-2.14709508,1.6181006400000002,9.21072672,-53.130001,-108.709999,-5.81,1770370258.034162
-1.6276752,1.04841432,9.392643360000001,-47.25,-107.519997,0.84,1770370258.042093
-1.13937264,0.23697036000000002,9.31365324,-39.549999,-104.160004,9.03,1770370258.050101
-0.7061238000000001,-0.5050580400000001,9.26578044,-27.65,-101.220001,8.33,1770370258.058292
-0.31835412,-1.2159691200000002,9.5506236,-13.58,-94.779999,7.35,1770370258.066945
0.01436184,-1.6037388,10.03413888,-2.66,-84.980003,6.23,1770370258.074555
0.32792868000000003,-1.8694328400000002,10.62058068,4.41,-70.629997,7.0,1770370258.082126
0.58404816,-1.96757208,11.07297864,8.47,-52.43,8.26,1770370258.090119
0.70133652,-2.10879684,11.28840624,9.17,-33.810001,6.23,1770370258.098159
0.66064464,-2.24762796,11.2261716,6.23,-14.35,8.89,1770370258.106099
0.38776968,-2.513322,11.02031856,2.8,2.94,6.02,1770370258.114168
-0.00718092,-2.73832416,10.80249732,1.68,16.52,8.82,1770370258.122101
-0.5289944400000001,-2.9705072400000003,10.498505040000001,-1.26,24.92,4.9,1770370258.130191
-1.1226171600000001,-3.2074776,10.20648096,-3.78,29.4,5.88,1770370258.138193
-1.70187804,-3.3702451200000003,9.9216378,-6.58,29.049999,5.88,1770370258.146132
-2.1710314800000003,-3.45162888,9.617645520000002,-7.77,24.15,-1.96,1770370258.154127
-2.50853472,-3.4229052,9.256205880000001,-7.28,17.5,-0.63,1770370258.162163
-2.63539764,-3.4396606800000002,9.05274648,-9.24,9.59,-6.23,1770370258.17017
-2.58991848,-3.4229052,9.05035284,-7.77,-0.56,-7.35,1770370258.178113
-2.3290117200000005,-3.3702451200000003,9.256205880000001,-6.02,-10.15,-10.92,1770370258.186098
-1.9292738400000002,-3.15721116,9.471633480000001,-4.27,-20.16,-11.62,1770370258.194859
-1.47687588,-2.9202408,9.5984964,-4.13,-25.83,-14.42,1770370258.20213
-0.95027508,-2.73832416,9.694242000000001,0.35,-31.5,-14.98,1770370258.210109
-0.43085520000000005,-2.48459832,9.7899876,2.8,-34.580002,-14.28,1770370258.218133
-0.0023936400000000003,-2.1303396,9.89291412,7.77,-36.610001,-16.450001,1770370258.226155
0.37580148,-1.735389,9.924031440000002,11.2,-33.459999,-15.12,1770370258.234089
0.6702192000000001,-1.17527724,9.95514876,15.19,-29.469999,-12.74,1770370258.242086
0.81862488,-0.6223464,9.993447,15.19,-23.030001,-9.8,1770370258.250123
0.8545294800000001,-0.13883112,9.924031440000002,16.66,-11.13,-5.53,1770370258.258178
0.7899012,0.32074776000000005,9.80674308,17.08,0.28,-1.33,1770370258.266102
0.6534637200000001,0.8090503200000001,9.77083848,16.870001,11.62,1.61,1770370258.274097
0.38537604000000003,1.04362704,9.8857332,17.290001,23.59,6.44,1770370258.282097
0.02154276,1.19203272,10.050894360000001,15.75,35.490002,8.68,1770370258.290094
-0.3949506,1.29735288,10.19930004,14.98,45.57,11.62,1770370258.298264
-0.85213584,1.36916208,10.295045640000001,11.2,53.27,12.32,1770370258.30608
-1.30214016,1.4122476000000002,10.259141040000001,11.48,58.099998,16.52,1770370258.314105
-1.72820808,1.46490768,10.18254456,9.1,57.82,12.81,1770370258.322093
-2.0417749200000004,1.55347236,9.935999640000002,8.68,54.389999,14.98,1770370258.330096
-2.22129792,1.77368724,9.71339112,7.42,47.110001,14.35,1770370258.338102
-2.29310712,1.93166748,9.581740920000001,9.45,35.98,11.62,1770370258.346096
-2.2189042800000003,2.0130512400000002,9.292110480000002,8.12,25.83,9.03,1770370258.354097
-1.98193392,1.99390212,9.13891752,10.01,17.360001,6.37,1770370258.362153
-1.6731543600000003,1.93406112,9.083863800000001,9.87,9.94,0.49,1770370258.370074
-1.27820376,1.85985828,9.24184404,9.66,9.31,-1.19,1770370258.378106
-0.91437048,1.77368724,9.5386554,7.77,10.78,-3.85,1770370258.386093
-0.7396347600000001,1.63485612,9.809136720000001,4.13,14.07,-4.34,1770370258.394115
-0.6582510000000001,1.52953596,9.864190440000002,-0.77,21.139999,-4.9,1770370258.402133
-0.73245384,1.48884408,9.74690208,-6.09,30.940001,-5.11,1770370258.410112
-0.83538036,1.50320592,9.53147448,-7.42,40.669998,-5.81,1770370258.418189
-0.9813924,1.6157070000000002,9.495569880000001,-11.76,51.380001,-8.05,1770370258.426116
-1.18724544,1.6037388,9.557804520000001,-15.33,63.490002,-7.0,1770370258.434086
-1.496025,1.23511824,9.7780194,-15.33,74.199997,-6.3,1770370258.442106
-1.88379468,0.5050580400000001,9.76844484,-17.01,85.190002,-7.35,1770370258.450119
-2.33858628,-0.18431028,9.495569880000001,-11.69,95.129997,-4.34,1770370258.458113
-2.8244952000000003,-0.74442204,9.170034840000001,-8.89,100.379997,-5.67,1770370258.466191
-3.3271596000000003,-1.18963908,9.122162040000001,-1.33,106.120003,-1.26,1770370258.474096
-3.9136014000000006,-1.4696949600000002,9.27774864,3.22,107.309998,1.82,1770370258.482098
-4.56945876,-1.60613244,9.55541088,7.14,107.800003,6.16,1770370258.49012
-5.02903764,-1.6994844000000002,9.67748652,7.91,105.559998,10.57,1770370258.498148
-5.53648932,-1.7306017200000001,9.62961372,10.22,101.290001,13.3,1770370258.506107
-5.9601636000000005,-1.91012472,9.51232536,10.08,97.440002,14.98,1770370258.514107
-6.280911360000001,-1.9867212,9.22508856,13.23,93.029999,19.67,1770370258.522127
-6.53942448,-2.08725408,8.95700088,13.23,85.470001,19.110001,1770370258.530102
-6.83144856,-2.13991416,8.832531600000001,12.46,77.139999,22.4,1770370258.53811
-7.02054612,-2.17342512,8.65061496,10.43,69.440002,20.370001,1770370258.546092
-7.183313640000001,-2.25959616,8.377740000000001,5.46,61.599998,22.82,1770370258.554201
-7.3125702,-2.42236368,8.0665668,2.1,56.91,22.049999,1770370258.562099
-7.3724112,-2.50614108,7.66682892,-4.55,49.279999,18.549999,1770370258.570116
-7.370017560000001,-2.6234294400000002,7.4561886,-7.42,42.279999,18.76,1770370258.57825
-7.283846520000001,-2.77901604,7.35804936,-14.42,37.939999,16.799999,1770370258.586116
-7.2359737200000005,-2.8867298400000005,7.35326208,-16.799999,32.970001,14.07,1770370258.594098
-7.295814720000001,-2.752686,7.4418267600000005,-14.91,29.82,15.26,1770370258.602111
-7.420284,-2.6186421600000003,7.5639024,-15.33,26.950001,16.799999,1770370258.610188
-7.67400984,-2.4822046799999997,7.693158960000001,-13.02,24.360001,17.15,1770370258.61813
-7.901405640000001,-2.333799,7.82002188,-11.13,20.51,17.01,1770370258.626099
-8.09768412,-2.28831984,7.91576748,-12.53,17.5,20.16,1770370258.634113
-8.272419840000001,-2.14709508,7.982789400000001,-8.19,12.6,20.23,1770370258.642231
-8.36098452,-1.9196992800000001,7.87986288,-7.21,7.28,21.98,1770370258.650184
-8.38013364,-1.56544056,7.812840960000001,-2.45,-0.91,23.799999,1770370258.658211
-8.2819944,-1.18724544,7.719489000000001,-0.07,-7.28,23.17,1770370258.666125
-8.10965232,-0.777933,7.72188264,0.0,-11.83,22.610001,1770370258.674085
-7.853532840000001,-0.32074776000000005,7.719489000000001,4.06,-17.01,19.950001,1770370258.682104
-7.55672148,0.01436184,7.77454272,3.64,-23.799999,22.190001,1770370258.690158
-7.2766656,0.27766224,7.86789468,7.0,-24.15,21.07,1770370258.698444
-7.04687616,0.5194198800000001,8.052204960000001,6.79,-26.040001,20.58,1770370258.706085
-6.90325776,0.83059308,8.37534636,5.25,-24.57,20.370001,1770370258.714102
-6.86256588,1.0891062,8.7248178,4.34,-25.34,16.799999,1770370258.722118
-6.908045040000001,1.21118184,8.83731888,0.63,-26.6,15.54,1770370258.730098
-6.946343280000001,1.10586168,8.4734856,0.63,-29.610001,13.44,1770370258.738213
-6.93198144,0.9119768400000001,7.97560848,1.05,-34.790001,14.98,1770370258.746091
-6.80751216,0.7611775199999999,7.611775200000001,0.35,-36.330002,11.83,1770370258.754102
-6.54899904,0.6654319200000001,7.4418267600000005,1.89,-41.02,13.51,1770370258.762098
-6.2833049999999995,0.59841,7.271878320000001,-0.21,-43.75,15.19,1770370258.770117
-5.9841,0.5074516800000001,7.15458996,-0.77,-44.59,12.74,1770370258.778218
-5.8404816,0.40452516000000005,6.92001324,1.89,-44.66,11.83,1770370258.786094
-5.8165452,0.40452516000000005,6.63995736,2.38,-43.330002,7.56,1770370258.794098
-5.8739925600000005,0.63910188,6.71894748,5.88,-43.119999,0.84,1770370258.802146
-6.00564276,1.03644612,7.24554828,3.22,-38.57,-4.41,1770370258.810288
-6.1516548,1.41703488,8.02826856,-0.14,-33.669998,-9.94,1770370258.818127
-6.10138836,1.57501512,8.765509680000001,-5.25,-33.459999,-14.84,1770370258.826115
-6.03436644,1.4840568,9.36391968,-8.89,-34.790001,-16.450001,1770370258.834089
-5.8883544,1.20400092,9.82110492,-6.09,-45.009998,-18.690001,1770370258.84212
-5.53648932,0.84495492,9.99823428,-5.81,-55.580002,-19.6,1770370258.850178
-5.09127228,0.54574992,10.105948080000001,-2.03,-66.989998,-16.309999,1770370258.858106
-4.58142696,0.33750324,10.18254456,-1.61,-76.790001,-15.96,1770370258.866107
-3.9495060000000004,0.13643748,10.28547108,-0.98,-82.110001,-13.86,1770370258.874133
-3.3367341600000002,-0.08377740000000002,10.486536840000001,0.91,-83.720001,-12.18,1770370258.882197
-2.7167814000000003,-0.22978944,10.737869040000001,-2.24,-79.519997,-10.36,1770370258.890101
-2.154276,-0.49308984000000006,10.914998400000002,-1.19,-71.75,-7.35,1770370258.898118
-1.6994844000000002,-0.6941556000000001,10.903030200000002,-1.12,-61.32,-7.21,1770370258.906094
-1.39309848,-0.88085952,10.658878920000001,-2.87,-50.189999,-5.11,1770370258.914175
-1.20400092,-1.00054152,10.311801120000002,-2.1,-37.240002,-3.29,1770370258.922364
-1.12740444,-1.2231500400000002,9.9695106,-2.59,-25.48,-2.73,1770370258.930182
-1.0986807600000001,-1.4122476000000002,9.59610276,0.98,-15.12,-2.38,1770370258.938111
-1.14655356,-1.63485612,9.13652388,4.2,-6.37,-3.29,1770370258.946603
-1.2255436800000001,-1.69230348,8.72721144,7.42,0.7,-0.63,1770370258.954112
-1.3117147200000001,-1.85985828,8.562050280000001,14.42,3.43,-1.54,1770370258.96211
-1.42660944,-1.76171904,8.66258316,17.01,7.49,-3.29,1770370258.9701
-1.57501512,-1.4433649200000003,8.904340800000002,22.190001,12.11,-4.06,1770370258.978196
-1.7593254,-1.3524066000000001,9.205939440000002,25.200001,16.24,-6.65,1770370258.986133
-1.90055016,-1.0388397600000001,9.45248436,31.01,23.52,-10.85,1770370258.994128
-1.94363568,-0.7803266400000001,9.62961372,38.220001,25.76,-13.79,1770370259.002084
-2.07289224,-0.5912290800000001,9.86658408,44.869999,28.700001,-19.110001,1770370259.010223
-2.28831984,-0.70851744,9.84504132,54.740002,30.450001,-16.450001,1770370259.018205
-2.5540138800000003,-0.6462827999999999,9.25859952,48.23,25.059999,-21.139999,1770370259.026165
-2.67608952,-0.44761068000000004,8.463911040000001,36.889999,16.379999,-26.32,1770370259.03416
-2.5013538,-0.16516116,7.64049888,21.209999,5.04,-32.130001,1770370259.042114
-1.91012472,0.19627848000000003,7.19049456,5.46,-4.48,-36.119999,1770370259.050102
-1.2159691200000002,0.51223896,7.410709440000001,3.57,-11.69,-37.52,1770370259.058258
-0.5864418,0.86649768,7.973214840000001,4.62,-13.72,-39.200001,1770370259.066386
-0.08617104,0.9813924,8.55965664,7.21,-11.13,-40.110001,1770370259.074325
0.21782124000000003,0.81623124,9.01923552,3.29,-3.29,-35.279999,1770370259.082216
0.42367428,0.7803266400000001,9.28492956,-7.98,8.26,-27.860001,1770370259.09012
0.51223896,0.90479592,9.4309416,-17.15,21.280001,-21.49,1770370259.098117
0.54096264,1.19442636,9.74450844,-18.200001,35.490002,-13.09,1770370259.106081
0.34229052,1.39549212,10.42669584,-14.21,50.330002,-7.49,1770370259.114117
-0.07659648000000001,1.4577267600000001,10.98441396,-5.25,64.610001,1.19,1770370259.122323
-0.7563902400000001,1.66118616,11.36021544,-1.33,78.540001,3.78,1770370259.130119
-1.4457585600000002,1.9795402800000002,11.62830312,2.24,89.669998,11.76,1770370259.138111
-2.0824668,2.10161592,11.58282396,7.56,96.739998,14.98,1770370259.146103
-2.7287496000000004,1.95799752,10.9748394,8.54,93.099998,23.309999,1770370259.154122
-3.4851398400000004,1.6276752,10.04850072,13.58,88.900002,30.450001,1770370259.162104
-4.18168908,1.5367168800000002,9.33998328,12.11,84.209999,34.860001,1770370259.170101
-4.77770544,1.58937696,9.19875852,11.9,79.800003,31.85,1770370259.178111
-5.1941988,1.6851225600000002,9.490782600000001,6.79,76.089996,30.66,1770370259.186102
-5.672926800000001,1.62528156,9.78759396,-1.96,74.550003,23.309999,1770370259.194105
-6.2474004,1.55107872,10.019777040000001,-8.89,73.360001,16.940001,1770370259.202135
-6.774001200000001,1.33804476,9.98865972,-17.43,71.330002,10.92,1770370259.210113
-7.3125702,0.9766051200000001,9.840254040000001,-27.860001,66.919998,6.58,1770370259.218102
-7.7553936000000006,0.6558573600000001,9.6822738,-32.34,58.59,3.01,1770370259.226095
-8.107258680000001,0.47633436000000007,9.56737908,-29.889999,47.740002,-4.2,1770370259.234215
-8.4016764,0.35904600000000003,9.49796352,-21.42,37.59,-5.74,1770370259.242089
-8.61949764,0.50027076,9.454878,-14.14,24.290001,-9.03,1770370259.250094
-8.6530086,0.60559092,9.4189734,-7.84,8.26,-11.13,1770370259.2581
-8.317899,0.74442204,9.07668288,-6.3,-9.38,-13.16,1770370259.266091
-7.80805368,0.8832531600000001,8.5931676,-9.59,-26.040001,-11.62,1770370259.274095
-7.1162917199999995,1.04841432,8.13358872,-9.87,-44.59,-12.46,1770370259.282119
-6.32160324,1.08671256,7.810447320000001,-16.24,-57.610001,-9.8,1770370259.290188
-5.45989284,1.16330904,7.65007344,-17.639999,-67.620003,-8.12,1770370259.298098
-4.64126796,1.2159691200000002,7.65486072,-21.0,-73.57,-5.74,1770370259.306074
-3.91838868,1.25187372,7.865501040000001,-22.889999,-72.730003,-4.9,1770370259.314131
-3.31040412,1.3045338,8.0426304,-22.190001,-69.300003,-4.2,1770370259.322175
-2.84364432,1.3308638400000001,8.2101852,-27.23,-64.959999,-3.22,1770370259.330118
-2.4630555600000004,1.32368292,8.25087708,-28.0,-58.240002,-1.61,1770370259.338105
-2.1183714,1.2925655999999999,8.12162052,-28.700001,-50.959999,-4.41,1770370259.346091
-1.79762364,1.12979808,7.889437440000001,-27.440001,-42.77,-6.37,1770370259.354098
-1.5319296,0.85931676,7.58065788,-20.790001,-36.119999,-9.03,1770370259.362177
-1.3308638400000001,0.6869746800000001,7.413103080000001,-16.1,-29.540001,-12.32,1770370259.370107
-1.2375118800000002,0.61755912,7.391560320000001,-9.03,-20.440001,-15.4,1770370259.378101
-1.1992136400000002,0.5792608800000001,7.44900768,-6.02,-12.88,-19.040001,1770370259.38609
-1.1824581600000001,0.56729268,7.48251864,-5.46,-4.83,-24.85,1770370259.39416
-1.19203272,0.53378172,7.583051520000001,-5.46,0.63,-29.469999,1770370259.402082
-1.24948008,0.3949506,7.84395828,-11.9,8.96,-31.85,1770370259.410166
-1.3165020000000003,0.00718092,8.18385516,-16.24,16.030001,-33.950001,1770370259.418115
-1.4361840000000001,-0.33989688,8.66976408,-19.879999,22.26,-34.369999,1770370259.426112
-1.74017628,-0.6223464,9.21312036,-21.98,29.68,-34.509998,1770370259.434115
-2.01783852,-0.9335196,9.564985440000001,-18.76,37.52,-33.740002,1770370259.442103
-2.4726301200000003,-1.2829910400000002,9.77083848,-14.21,46.27,-30.030001,1770370259.45042
-2.9322090000000003,-1.6420370400000002,9.81871128,-7.98,54.740002,-27.23,1770370259.4582
-3.41333064,-1.9388484000000001,9.797168520000001,2.03,62.369999,-24.639999,1770370259.466128
-3.95189964,-1.90773108,9.86658408,13.23,67.830002,-24.219999,1770370259.474101
-4.58621424,-1.66118616,10.060468920000002,24.219999,72.379997,-21.700001,1770370259.482098
-5.153506920000001,-1.2446928,10.28547108,31.99,76.089996,-22.82,1770370259.490097
-5.7758533199999995,-0.71091108,10.4841432,38.080002,77.349998,-21.07,1770370259.49819
-6.352720560000001,-0.21064032000000002,10.65648528,42.209999,77.980003,-20.93,1770370259.506085
-6.872140440000001,0.16755480000000003,10.555952400000002,42.77,76.790001,-19.74,1770370259.514103
-7.3987412400000006,0.46915344000000003,10.2447792,47.110001,73.57,-17.99,1770370259.522132
-7.815234600000001,0.70373016,9.663124680000001,46.619999,70.209999,-18.690001,1770370259.530267
-8.224547040000001,0.9454878,8.90912808,46.759998,68.25,-16.59,1770370259.538162
-8.67455136,1.27102284,8.095290480000001,46.970001,63.490002,-17.57,1770370259.546105
-9.06232104,1.67076072,7.54475328,45.220001,57.470001,-19.110001,1770370259.5541
-9.373494240000001,2.0130512400000002,7.3365066,42.209999,50.470001,-23.73,1770370259.562166
-9.6104646,2.22847884,7.02054612,36.189999,46.130001,-24.639999,1770370259.570095
-9.835466760000001,2.20454244,6.3910187999999994,35.07,41.650002,-20.440001,1770370259.578106
-10.1011608,2.154276,5.69207592,33.810001,40.110001,-19.6,1770370259.586096
-10.58467608,2.1782124,5.19898608,29.959999,38.150002,-15.26,1770370259.59416
-11.09691504,2.30746896,4.9189302,25.76,33.599998,-10.85,1770370259.602095
-11.561281200000002,2.4726301200000003,4.849514640000001,14.77,27.719999,-10.36,1770370259.610107
-11.97298728,2.63779128,5.048186760000001,6.79,18.059999,-8.26,1770370259.618115
-12.126180240000002,2.69763228,5.277976200000001,-5.88,3.64,-6.65,1770370259.626129
-11.98734912,2.4678428400000003,5.151113280000001,-12.11,-15.33,-2.52,1770370259.634129
-11.60197308,2.1183714,5.072123160000001,-9.31,-37.310001,1.4,1770370259.642099
-11.05382952,1.82156004,5.38090272,-3.57,-60.549999,4.9,1770370259.650474
-10.42190856,1.75693176,6.1444738800000005,3.22,-75.879997,1.05,1770370259.658112
-9.687061080000001,2.03698764,7.3245384,2.31,-89.110001,-1.61,1770370259.666099
-8.980937280000001,2.47023648,8.578805760000002,0.63,-100.379997,-7.91,1770370259.6741
-8.30832444,2.88194256,9.471633480000001,-3.57,-110.32,-11.41,1770370259.682119
-7.73624448,3.0255609600000004,9.6583374,-4.55,-118.370003,-15.96,1770370259.690111
-7.1043235199999994,3.01119912,9.46205892,-1.33,-127.959999,-16.1,1770370259.698519
-6.34553964,2.7598669200000003,9.02162916,5.46,-140.910004,-18.200001,1770370259.706203
-5.42638188,2.45587464,8.585986680000001,12.53,-154.139999,-21.07,1770370259.714096
-4.437808560000001,2.09204136,8.18146152,23.450001,-171.429993,-21.629999,1770370259.722104
-3.51146988,1.5391105200000001,7.98997032,31.57,-186.339996,-26.530001,1770370259.730101
-2.6330040000000006,1.22793732,8.17667424,39.34,-193.410004,-29.4,1770370259.738106
-1.71384624,1.0795316400000001,8.66976408,49.630001,-194.669998,-35.630001,1770370259.746095
-0.85692312,1.1010744000000001,9.263386800000001,52.849998,-186.619995,-43.610001,1770370259.754171
-0.10292652000000001,1.18963908,9.914456880000001,56.419998,-172.550003,-55.580002,1770370259.762103
0.58165452,1.3524066000000001,10.39557852,52.990002,-153.929993,-66.360001,1770370259.77018
1.21118184,1.50559956,10.532016000000002,45.220001,-132.580002,-79.309998,1770370259.778185
1.55347236,1.555866,10.192119120000001,35.07,-110.25,-89.18,1770370259.786105
1.6276752,1.25187372,9.67988016,23.870001,-85.82,-92.68,1770370259.794096
1.62528156,0.53378172,9.24184404,14.28,-63.419998,-93.870003,1770370259.802079
1.6683670800000001,-0.33271596000000003,9.11498112,11.97,-45.849998,-93.870003,1770370259.810102
1.50320592,-0.84016764,9.12694932,14.56,-33.880001,-94.57,1770370259.818165
1.2853846800000002,-0.897615,9.20833308,14.28,-24.01,-94.220001,1770370259.826113
1.0603825199999999,-0.8952213600000001,9.27774864,15.19,-14.56,-90.650002,1770370259.834087
0.8114439600000001,-1.0172970000000001,9.385462440000001,14.63,-8.05,-86.379997,1770370259.842107
0.6223464,-1.1417662800000001,9.57456,13.79,-0.28,-78.400002,1770370259.850288
0.54335628,-1.3284702000000002,9.804349440000001,10.57,5.88,-75.389999,1770370259.858127
0.45239796,-1.4696949600000002,10.13945904,7.63,9.59,-69.790001,1770370259.866108
0.34707780000000005,-1.5438978,10.4362704,6.23,13.37,-61.880001,1770370259.87413
0.25372584000000004,-1.65639888,10.61339976,7.56,14.77,-59.43,1770370259.882117
0.20585304000000001,-1.65639888,10.77377364,9.03,14.91,-49.98,1770370259.8901
0.23697036000000002,-1.43857764,10.941328440000001,13.58,15.68,-49.0,1770370259.898108
0.3111732,-1.11064896,11.101702320000001,16.52,15.05,-40.599998,1770370259.906084
0.39734424,-0.55771812,11.23335252,19.110001,16.450001,-38.919998,1770370259.914095
0.46197252000000005,0.20824668000000002,11.345853600000002,17.43,20.51,-31.01,1770370259.922188
0.54574992,1.04841432,11.278831680000001,13.44,23.59,-27.51,1770370259.93012
0.55771812,1.77368724,10.87670016,8.47,29.120001,-20.51,1770370259.938108
0.55293084,2.33619264,10.311801120000002,5.25,35.84,-9.03,1770370259.946096
0.5074516800000001,2.692845,9.761263920000001,0.63,44.240002,-3.85,1770370259.95423
0.39973788,2.84125068,9.337589640000001,-3.22,56.490002,8.26,1770370259.962111
0.12686292000000002,2.70241956,8.91152172,-7.0,68.739998,17.360001,1770370259.970105
-0.14122476,2.49896016,8.61231672,-6.86,81.760002,25.34,1770370259.978107
-0.54335628,2.36730996,8.31311172,-9.52,92.120003,31.57,1770370259.986128
-1.0579888800000001,2.4175764,8.236515240000001,-11.9,104.230003,35.560001,1770370259.9941
-1.5606532800000001,2.6689086000000004,8.45433648,-13.58,113.050003,35.560001,1770370260.002138
-2.0298067200000003,2.71438776,8.60274216,-19.74,121.099998,34.439999,1770370260.010108
-2.55640752,2.32661808,8.377740000000001,-23.1,124.599998,36.119999,1770370260.018192
-3.1763602800000004,1.6731543600000003,8.02826856,-20.23,128.940002,34.93,1770370260.026302
-3.8657286000000006,1.15134084,7.78172364,-16.450001,132.440002,33.18,1770370260.034093
-4.75616268,0.9263386800000001,7.76975544,-6.79,133.139999,28.139999,1770370260.042209
-5.71840596,1.0388397600000001,7.985183040000001,-4.06,139.160004,22.190001,1770370260.050093
-6.69501108,1.24229916,8.09289684,-3.15,143.429993,13.16,1770370260.058133
-7.702733520000001,1.18963908,8.095290480000001,-7.21,143.289993,4.55,1770370260.066597
-8.550082080000001,0.83538036,7.86071376,-9.24,137.270004,-6.02,1770370260.074414
-9.35434512,0.29681136,7.73385084,-9.31,125.860001,-13.51,1770370260.082134
-10.108341720000002,-0.24415128000000003,8.009119440000001,-10.99,108.010002,-20.23,1770370260.090212
-10.63254888,-0.70851744,8.5213584,-4.9,83.580002,-21.49,1770370260.098126
-10.98920124,-0.96224328,8.6530086,-0.42,58.52,-18.76,1770370260.106092
-11.18547972,-1.01969064,8.37295272,8.75,29.75,-15.4,1770370260.114113
-11.147181480000002,-0.73724112,8.021087640000001,13.44,2.31,-10.5,1770370260.12211
-10.94850936,-0.23457672000000002,7.899012000000001,15.75,-20.719999,-10.15,1770370260.130158
-10.55116512,0.40213152,7.815234600000001,17.57,-39.549999,-10.5,1770370260.138179
-10.0173834,1.01250972,7.717095360000001,13.65,-52.849998,-10.5,1770370260.14613
-9.36870696,1.4194285199999999,7.74821268,8.19,-58.66,-13.3,1770370260.154118
-8.7128496,1.4840568,7.80566004,4.2,-59.290001,-8.82,1770370260.162177
-8.076141360000001,1.2231500400000002,7.66682892,-2.31,-53.549999,-6.58,1770370260.170108
-7.7003398800000005,0.6319209600000001,7.305389280000001,-7.77,-45.009998,3.36,1770370260.178147
-7.51842324,0.009574560000000001,7.066025280000001,-16.24,-35.349998,9.17,1770370260.186112
-7.45858224,-0.6103782,7.0373016,-21.42,-25.129999,14.21,1770370260.19423
-7.65246708,-1.1369790000000002,7.2168246,-28.77,-15.96,20.370001,1770370260.202227
-7.91576748,-1.63724976,7.293421080000001,-32.900002,-11.55,20.58,1770370260.210107
-8.1862488,-2.09204136,7.1713454400000005,-35.77,-9.8,26.040001,1770370260.218105
-8.41843188,-2.43672552,6.958311480000001,-36.75,-12.6,22.959999,1770370260.226121
-8.61949764,-2.5588011600000002,6.74288388,-32.200001,-17.219999,24.639999,1770370260.234236
-8.76311604,-2.48699196,6.690223800000001,-24.99,-23.379999,22.82,1770370260.242077
-8.75114784,-2.10161592,6.81469308,-18.129999,-32.48,18.549999,1770370260.250095
-8.566837560000002,-1.53432324,7.06841892,-10.92,-42.700001,16.799999,1770370260.258108
-8.28678168,-1.02687156,7.061238,-4.55,-51.310001,13.65,1770370260.266092
-8.018694,-0.58404816,6.908045040000001,0.91,-63.77,13.09,1770370260.274223
-7.65007344,-0.09095832000000001,6.8362358400000005,9.87,-75.809998,9.03,1770370260.282109
-7.212037320000001,0.2513322,6.56096724,13.65,-92.82,7.35,1770370260.290094
-6.62559552,0.44282340000000003,6.0200046,22.120001,-110.669998,2.38,1770370260.298106
-5.988887280000001,0.5074516800000001,5.40723276,31.780001,-125.720001,-3.99,1770370260.306076
-5.23249704,0.62713368,4.8231846,44.240002,-136.5,-9.73,1770370260.314193
-4.45935132,0.9574560000000001,4.65084252,55.509998,-142.029999,-17.99,1770370260.322129
-3.7149292800000002,1.5223550399999999,5.0529740400000005,62.509998,-142.940002,-27.860001,1770370260.330118
-2.8244952000000003,2.06092404,5.90271624,65.239998,-139.789993,-33.740002,1770370260.338097
-1.9149120000000002,2.64018492,6.967886040000001,64.120003,-134.259995,-38.57,1770370260.34608
-0.9861796800000001,3.2553504,8.179067880000002,59.779999,-125.720001,-43.049999,1770370260.354156
-0.21303396,3.8034939600000004,9.48599532,49.419998,-112.279999,-45.639999,1770370260.362102
0.5266008,4.3564248,10.728294479999999,35.77,-97.650002,-50.75,1770370260.370081
1.19203272,4.70828988,11.305161720000001,17.01,-82.879997,-52.360001,1770370260.378109
1.5223550399999999,4.60536336,11.05382952,-0.42,-70.209999,-48.09,1770370260.386102
1.4696949600000002,3.8058876000000006,10.536803279999999,-14.7,-54.669998,-46.549999,1770370260.39414
1.0555952400000002,2.5013538,9.95514876,-21.07,-37.099998,-39.970001,1770370260.402099
0.52420716,1.17527724,9.699029280000001,-20.860001,-16.030001,-34.860001,1770370260.4101
-0.0239364,0.033510960000000006,9.873765,-14.14,5.88,-35.279999,1770370260.418108
-0.6223464,-0.7396347600000001,10.3764294,-6.51,23.309999,-41.09,1770370260.426147
-1.21357548,-1.0651698,10.879093800000001,0.21,35.630001,-48.09,1770370260.434218
-1.6228879200000002,-1.2805974,11.26446984,9.66,44.450001,-49.91,1770370260.442101
-2.1111904800000003,-1.555866,11.64745224,20.299999,49.91,-50.68,1770370260.45039
-2.5492266,-1.68990984,12.09506292,27.860001,47.740002,-50.889999,1770370260.458124
-2.7838033200000005,-1.5630469200000001,12.60490824,31.219999,41.720001,-51.380001,1770370260.466101
-2.9106662400000003,-1.2063945600000001,13.188956400000002,30.24,33.25,-49.07,1770370260.474101
-2.9752945200000003,-0.7468156800000001,13.63896072,26.459999,20.860001,-44.939999,1770370260.482295
-2.84603796,-0.5266008,13.708376280000001,15.47,8.54,-39.549999,1770370260.490103
-2.67608952,-0.40213152,13.56236424,7.0,-5.18,-35.279999,1770370260.498112
-2.40082092,-0.3949506,13.100391720000001,-1.33,-16.59,-31.08,1770370260.506086
-2.0561367600000002,-0.46197252000000005,12.3511824,-9.87,-25.129999,-28.0,1770370260.514127
-1.6276752,-0.28005588000000003,11.3937264,-16.030001,-31.219999,-23.379999,1770370260.522239
-1.16330904,-0.12446928,10.498505040000001,-17.639999,-32.549999,-17.57,1770370260.530123
-0.7707520800000001,0.05505372,10.055681640000001,-19.25,-30.450001,-15.68,1770370260.538119
-0.36383328000000004,0.48351528,9.890520480000001,-23.309999,-23.030001,-9.38,1770370260.54612
-0.04308552,0.8952213600000001,9.749295720000001,-25.200001,-11.48,-6.37,1770370260.55414
0.21064032000000002,1.10346804,9.48838896,-25.969999,1.61,2.66,1770370260.562104
0.38537604000000003,1.3093210800000001,8.980937280000001,-26.879999,16.379999,15.75,1770370260.5701
0.33750324,1.4673013200000002,8.25566436,-24.219999,29.610001,26.74,1770370260.578109
0.05744736,1.5941642400000002,7.35326208,-22.120001,41.720001,37.310001,1770370260.586229
-0.30399228000000006,1.735389,6.17319756,-17.01,50.330002,44.73,1770370260.594101
-0.6534637200000001,1.7114526,5.21334792,-11.48,58.029999,49.0,1770370260.602097
-0.88085952,1.4481522,4.68435348,-4.9,64.82,51.799999,1770370260.610106
-1.1609154000000002,0.9478814400000001,4.75616268,4.55,72.379997,54.32,1770370260.618198
-1.39788576,0.6343146,5.507765640000001,11.55,84.0,57.540001,1770370260.626136
-1.75693176,0.9071895600000001,6.97267332,20.09,97.230003,56.700001,1770370260.634107
-2.4798110400000004,1.6731543600000003,8.64582768,16.66,108.290001,54.740002,1770370260.642138
-3.51625716,2.4630555600000004,9.95993604,6.44,115.080002,50.82,1770370260.650102
-4.772918160000001,2.68327044,10.33334388,-8.68,119.07,44.73,1770370260.658139
-5.8739925600000005,2.15188236,9.9216378,-22.33,117.18,36.68,1770370260.666096
-7.066025280000001,1.23511824,9.50514444,-31.360001,110.949997,26.32,1770370260.674101
-8.30353716,0.16276752,9.44530344,-33.599998,101.639999,18.48,1770370260.682159
-9.521899920000001,-0.85692312,9.4309416,-28.49,93.099998,4.69,1770370260.690117
-10.39797216,-1.61331336,9.01923552,-19.809999,80.080002,-1.61,1770370260.69811
-10.946115720000002,-1.93406112,8.36337816,-10.43,60.41,-11.97,1770370260.706113
-11.015531280000001,-1.7210271600000002,8.078535,-5.04,36.330002,-18.34,1770370260.714131
-10.77138,-1.21836276,8.17188696,-3.64,8.19,-22.26,1770370260.722142
-10.16818272,-0.5361753600000001,8.49024108,-8.12,-16.450001,-20.93,1770370260.73019
-9.45727164,-0.08856468,8.97854364,-16.309999,-35.560001,-21.559999,1770370260.738121
-8.6410404,-0.07899012000000001,9.32562144,-21.42,-45.779999,-18.549999,1770370260.746123
-7.82002188,-0.2633004,9.35434512,-24.99,-47.529999,-12.18,1770370260.754094
-7.23118644,-0.55532448,8.916309,-24.92,-42.700001,-3.43,1770370260.762218
-6.967886040000001,-0.7731457199999999,8.43040008,-23.030001,-34.09,6.16,1770370260.770095
-6.91283232,-0.8114439600000001,8.0067258,-19.950001,-22.26,11.55,1770370260.778111
-7.0732062,-0.8090503200000001,7.68597804,-16.66,-10.85,15.47,1770370260.7861
-7.23118644,-0.65107008,7.54235964,-14.56,-0.49,12.74,1770370260.794118
-7.4681568,-0.43564248000000005,7.55432784,-10.01,5.6,16.24,1770370260.802103
-7.707520800000001,-0.19867212,7.63810524,-12.11,9.03,14.91,1770370260.810105
-7.810447320000001,-0.1436184,7.791298200000001,-10.36,8.61,12.95,1770370260.818105
-7.97560848,-0.24893856,7.53039144,-12.39,1.96,11.41,1770370260.826131
-7.887043800000001,-0.53378172,7.13065356,-8.68,-6.58,9.38,1770370260.834119
-7.6572543600000005,-0.7803266400000001,6.81948036,-2.1,-18.969999,9.17,1770370260.842123
-7.305389280000001,-0.97421148,6.69740472,4.41,-32.970001,6.72,1770370260.850086
-6.82666128,-1.11064896,6.41734884,16.309999,-47.459999,9.24,1770370260.858108
-6.2713368,-1.1585217600000002,6.077451959999999,25.76,-63.98,9.52,1770370260.866102
-5.70643776,-1.16330904,5.79500244,35.279999,-80.290001,9.45,1770370260.874114
-5.1223896,-1.29735288,5.71601232,47.389999,-95.199997,7.91,1770370260.882208
-4.64126796,-1.2686292,5.91468444,56.630001,-104.93,3.85,1770370260.890166
-4.14339084,-1.0579888800000001,6.44367888,63.279999,-109.410004,-0.77,1770370260.898118
-3.5760981600000004,-0.5050580400000001,7.32693204,65.870003,-107.730003,-5.88,1770370260.906083
-2.9322090000000003,0.40213152,8.47827288,63.560001,-97.93,-16.66,1770370260.914102
-2.3002880400000003,1.29735288,9.773232120000001,54.32,-84.980003,-22.120001,1770370260.922172
-1.6970907600000003,2.0585304,10.86473196,36.68,-67.620003,-28.42,1770370260.930163
-1.16809632,2.66412132,11.367396359999999,22.33,-52.57,-27.65,1770370260.938127
-0.7899012,2.9202408,11.477503800000001,8.75,-43.330002,-31.5,1770370260.946152
-0.37580148,3.1284874800000004,11.30755536,-4.34,-38.43,-26.389999,1770370260.954139
-0.27048132,3.0997638,11.015531280000001,-12.74,-37.66,-25.620001,1770370260.962226
-0.35425872,3.0854019600000004,10.62058068,-25.549999,-36.68,-19.67,1770370260.9701
-0.75160296,2.9944436400000005,10.1610018,-32.200001,-33.459999,-18.200001,1770370260.978113
-1.2016072800000002,2.67608952,9.67748652,-35.139999,-23.24,-19.32,1770370260.986102
-1.7210271600000002,2.4343318800000002,9.32083416,-38.57,-8.47,-20.719999,1770370260.994157
-2.2739580000000004,2.2500216,9.21072672,-34.790001,8.4,-21.700001,1770370261.002104
-2.6689086000000004,2.07289224,9.299291400000001,-33.18,21.84,-19.040001,1770370261.010107
-2.92502808,1.96517844,9.349557840000001,-30.73,24.15,-23.379999,1770370261.018113
-3.0997638,1.67794164,9.41418612,-24.57,20.09,-25.34,1770370261.026109
-3.2314140000000005,1.34761932,9.55541088,-19.879999,9.38,-29.26,1770370261.034124
-3.1763602800000004,0.96224328,9.81153036,-14.21,-2.38,-27.65,1770370261.042104
-2.9681136,0.68458104,9.952755119999999,-11.62,-15.89,-26.809999,1770370261.050102
-2.7048132000000003,0.46436616000000003,10.08201168,-5.46,-24.780001,-22.049999,1770370261.058252
-2.2452343200000002,0.40213152,10.299832920000002,-3.57,-31.08,-19.950001,1770370261.066456
-1.6994844000000002,0.5601117600000001,10.58946336,-5.04,-33.25,-17.780001,1770370261.07433
-1.11782988,0.5744736,10.98441396,-4.76,-34.23,-12.25,1770370261.082139
-0.53378172,0.4547916,11.18308608,-11.97,-33.529999,-9.45,1770370261.090195
-0.04069188,0.19388484,10.80010368,-14.14,-33.810001,-3.43,1770370261.09812
0.4547916,-0.28484316,10.34531208,-19.530001,-29.82,4.34,1770370261.106167
0.9119768400000001,-0.80426304,9.99105336,-18.129999,-23.59,12.74,1770370261.114108
1.2686292,-1.20400092,9.49796352,-15.68,-14.49,23.870001,1770370261.122186
1.52953596,-1.6037388,8.97854364,-10.22,-1.68,33.529999,1770370261.130464
1.63485612,-1.8071982,8.463911040000001,-1.33,14.28,42.84,1770370261.138235
1.5175677600000002,-2.03938128,8.045024040000001,12.53,34.509998,51.799999,1770370261.146103
1.17527724,-1.9771466400000002,7.9349166,26.110001,56.490002,61.110001,1770370261.154145
0.5744736,-1.6875162000000001,8.58359304,34.650002,81.900002,69.790001,1770370261.162112
-0.27766224,-1.14655356,9.82110492,36.119999,104.230003,74.970001,1770370261.170103
-1.4696949600000002,-0.45000432000000007,11.18547972,28.35,122.080002,75.389999,1770370261.178111
-2.8005588,0.35425872,12.152510280000001,14.21,134.820007,72.660004,1770370261.186106
-4.50483048,0.6821874000000001,12.2913414,-5.88,139.929993,65.169998,1770370261.194182
-6.1875594,0.5050580400000001,11.79585792,-18.76,141.190002,57.75,1770370261.20221
-8.01390672,-0.052660080000000005,10.94850936,-27.790001,140.490005,44.240002,1770370261.21033
-9.57456,-0.6438891600000001,9.97190424,-29.68,139.160004,28.35,1770370261.218105
-10.78813548,-0.98378604,9.244237680000001,-26.809999,128.309998,10.08,1770370261.226094
-11.350640880000002,-0.79468848,8.83971252,-27.65,110.739998,-7.56,1770370261.234121
-11.34824724,-0.23457672000000002,8.64343404,-25.9,83.019997,-19.110001,1770370261.242156
-10.7953164,0.5792608800000001,8.46630468,-27.93,47.669998,-26.18,1770370261.250091
-9.813924,1.66118616,8.29874988,-28.77,8.19,-30.24,1770370261.258102
-8.676945,2.49177924,8.0665668,-31.219999,-24.43,-34.860001,1770370261.266105
-7.31735748,2.9393899200000004,7.606987920000001,-33.880001,-49.209999,-35.77,1770370261.274097
-6.027185520000001,3.0782210400000003,7.0732062,-29.469999,-67.059998,-34.650002,1770370261.282167
-4.91653656,3.13088112,6.592084560000001,-23.940001,-73.779999,-31.92,1770370261.290106
-4.11945444,3.2912550000000005,5.94580176,-14.21,-76.860001,-29.889999,1770370261.298102
-3.5976409200000004,3.5521617599999997,5.2899444,-6.65,-71.959999,-27.440001,1770370261.306075
-3.27449952,3.82503672,4.97159028,-2.59,-62.299999,-25.34,1770370261.314209
-3.1931157600000004,3.9447187200000005,4.97398392,-1.12,-46.34,-22.469999,1770370261.322108
-3.2290203600000003,3.7005674400000004,5.1702623999999995,-3.57,-24.219999,-14.84,1770370261.330117
-3.5425872000000003,3.1691793600000002,5.574787560000001,-7.14,0.49,-5.67,1770370261.338122
-4.15057176,2.45587464,6.0200046,-11.34,22.540001,0.98,1770370261.346099
-4.83275916,1.3883112000000002,6.38144424,-15.47,38.919998,9.31,1770370261.354185
-5.58436212,-0.059841000000000005,6.177984840000001,-12.11,46.689999,16.870001,1770370261.362082
-6.493945320000001,-1.8742201200000002,5.519733840000001,-1.33,42.91,22.610001,1770370261.370086
-7.43943312,-3.71732292,5.09366592,18.9,28.42,29.68,1770370261.378104
-8.162312400000001,-5.20137972,5.026644,41.439999,9.17,34.09,1770370261.386099
-8.89955352,-6.070271040000001,5.52212748,65.309998,-10.01,37.73,1770370261.394102
-9.5386554,-6.43410432,6.90086412,83.230003,-29.889999,31.85,1770370261.402222
-10.132278120000002,-6.55139268,9.00726732,88.339996,-45.990002,20.16,1770370261.410164
-10.335737520000002,-6.3718696800000005,11.22377796,80.989998,-57.119999,-2.17,1770370261.418113
-10.050894360000001,-6.254581320000001,12.90650688,70.559998,-62.439999,-12.74,1770370261.426095
-9.0000864,-6.13250568,13.880718360000001,62.720001,-72.730003,-24.5,1770370261.434226
-7.4418267600000005,-5.62026672,14.347478160000001,60.41,-94.43,-26.459999,1770370261.442105
-5.48861652,-4.50483048,14.969824560000001,57.82,-122.5,-24.5,1770370261.450103
-3.67663104,-2.8603998,15.731002080000001,48.16,-147.490005,-19.25,1770370261.458132
-2.04895584,-1.09389348,16.2647838,34.650002,-160.860001,-16.870001,1770370261.4661
-0.56729268,0.74920932,16.30308204,16.450001,-161.350006,-14.98,1770370261.474108
0.7970821200000001,2.4319382400000005,15.72860844,-0.21,-148.259995,-12.67,1770370261.482227
1.8359218800000001,3.51386352,14.550937560000001,-20.58,-126.489998,-7.7,1770370261.490099
2.42236368,4.0931244,13.093210800000001,-33.880001,-96.739998,2.94,1770370261.498146
2.5779502800000005,4.480894080000001,11.43920556,-42.84,-63.98,8.82,1770370261.506083
2.3984272800000004,4.61254428,9.77562576,-49.0,-32.34,14.98,1770370261.514107
1.90055016,4.68914076,8.018694,-46.900002,-5.39,14.42,1770370261.522123
1.29495924,4.796854560000001,6.39341244,-43.470001,17.92,13.58,1770370261.530177
0.58404816,5.0314312800000005,4.96919664,-37.169998,36.259998,12.25,1770370261.538212
-0.08138376,5.2899444,3.8058876000000006,-31.01,49.279999,8.82,1770370261.546153
-0.71091108,5.6130858,2.9202408,-27.09,56.700001,2.52,1770370261.554124
-1.2063945600000001,5.869205280000001,2.40800184,-25.129999,55.580002,-2.17,1770370261.562102
-1.58698332,6.05351556,2.2021488000000002,-26.879999,50.400002,-6.79,1770370261.5701
-1.92448656,6.0583028400000005,2.1901806,-29.959999,44.799999,-8.05,1770370261.578123
-2.154276,5.68728864,2.32422444,-32.48,40.459999,-5.25,1770370261.586099
-2.22369156,5.01706944,2.6138548800000003,-33.110001,36.75,-5.81,1770370261.594103
-2.08486044,4.1122735200000005,3.19790304,-29.4,32.200001,-6.58,1770370261.602115
-1.7928363600000001,3.111732,4.06440072,-20.65,32.619999,-11.62,1770370261.610111
-1.48645044,2.0417749200000004,5.1176023200000005,-7.35,36.189999,-10.85,1770370261.618105
-1.31889564,1.1130426000000002,6.3311778,6.65,41.720001,-13.86,1770370261.626092
-1.2327246,0.27526860000000003,7.83199008,16.66,45.150002,-11.34,1770370261.634124
-1.22793732,-0.26808768000000005,9.605677320000002,27.23,45.779999,-7.77,1770370261.642192
-1.40506668,-0.57207996,12.08309472,32.619999,46.900002,-0.28,1770370261.650096
-1.80959184,-0.90479592,14.96025,32.970001,48.580002,10.57,1770370261.658133
-2.41039548,-1.34761932,17.04989772,30.799999,47.740002,17.360001,1770370261.666104
-3.0375291600000005,-1.9986894000000002,18.07437564,24.57,45.290001,27.65,1770370261.674103
-3.5784918,-2.63539764,17.74644696,16.309999,42.77,34.860001,1770370261.682181
-4.32770112,-3.5760981600000004,16.59031884,3.99,44.66,40.669998,1770370261.690104
-5.36654088,-4.69392804,15.582596400000002,-4.13,55.439999,38.779999,1770370261.698159
-6.582510000000001,-5.648990400000001,15.355200600000002,-12.32,76.860001,27.58,1770370261.70613
-7.85592648,-6.278517720000001,15.59935188,-23.24,98.980003,11.2,1770370261.714112
-8.43040008,-5.83808796,15.594564600000002,-31.780001,116.059998,-7.0,1770370261.7221
-8.916309,-4.3612120800000005,14.986580040000002,-33.740002,116.620003,-17.43,1770370261.73027
-9.55541088,-2.5276838400000003,13.844813760000001,-34.860001,100.169998,-23.73,1770370261.738139
-9.890520480000001,-0.7899012,12.501981720000002,-39.34,72.800003,-30.450001,1770370261.746105
-9.77562576,0.6702192000000001,11.111276880000002,-44.799999,42.349998,-37.099998,1770370261.754094
-9.1676412,1.4098539600000002,9.6463692,-46.900002,13.37,-45.849998,1770370261.76221
-8.107258680000001,1.6228879200000002,8.08571592,-43.540001,-13.93,-56.279999,1770370261.77011
-6.96309876,1.8119854800000001,6.6638937600000006,-35.139999,-34.650002,-56.98,1770370261.778111
-5.804577,2.04416856,5.53409568,-20.299999,-49.98,-60.130001,1770370261.786098
-4.7154708,2.34097992,4.62929976,-10.57,-62.299999,-56.98,1770370261.794087
-3.8944522800000003,2.64975948,3.769983,0.56,-68.739998,-52.150002,1770370261.802106
-3.26492496,2.60428032,3.10694472,4.55,-73.43,-48.650002,1770370261.810179
-2.65454676,2.6617276800000003,2.68327044,10.08,-76.650002,-43.68,1770370261.818123
-2.18299968,2.4893856,2.43672552,12.32,-77.629997,-38.779999,1770370261.826093
-1.8981565200000001,2.1159777600000003,2.24284068,14.35,-75.809998,-33.18,1770370261.83413
-1.75214448,1.7688999600000002,1.86464556,14.98,-71.330002,-25.969999,1770370261.842122
-1.5582596400000002,1.48884408,1.4792695200000001,19.25,-67.760002,-19.6,1770370261.850102
-1.50081228,1.1369790000000002,1.42900308,22.75,-64.540001,-6.86,1770370261.858108
-1.5798024,0.42846156,1.96996572,27.790001,-55.02,3.5,1770370261.866097
-1.79762364,-0.4667598,3.05667828,32.549999,-38.080002,16.870001,1770370261.87412
-2.26917072,-1.15373448,4.37078664,40.529999,-15.68,26.32,1770370261.882209
-3.1260938400000002,-1.6851225600000002,6.0152173200000005,51.869999,15.47,36.189999,1770370261.890111
-4.547916000000001,-2.33140536,8.63864676,63.560001,48.369999,37.450001,1770370261.898116
-6.168410280000001,-2.56358844,11.68335684,79.730003,73.220001,30.52,1770370261.906087
-8.14076964,-2.61146124,14.46476652,87.639999,82.459999,30.030001,1770370261.914126
-10.503292320000002,-2.85561252,15.374349720000001,91.07,73.010002,20.719999,1770370261.922105
-12.72698388,-3.55934268,14.220615239999999,85.889999,52.57,17.01,1770370261.930111
-14.366627280000001,-4.65323616,13.093210800000001,75.32,18.76,3.01,1770370261.938146
-13.73470632,-5.335423560000001,13.782579120000001,59.849998,-28.07,-11.97,1770370261.946176
-11.59479216,-5.4527119200000005,15.38871156,40.18,-81.339996,-8.68,1770370261.954139
-8.98333092,-5.455105560000001,17.01159948,24.99,-135.589996,-4.34,1770370261.962138
-6.54899904,-5.2181352,18.490869,10.92,-174.929993,-4.41,1770370261.970114
-3.9542932800000004,-4.37557392,19.64699712,-4.27,-190.330002,-4.41,1770370261.978109
-1.6683670800000001,-2.88912348,19.670933520000002,-18.41,-185.429993,-6.02,1770370261.986097
0.0239364,-1.3308638400000001,18.4789008,-33.389999,-166.529999,-7.0,1770370261.994139
1.39788576,-0.24175764,15.92728056,-46.549999,-143.149994,-6.37,1770370262.002107
2.22129792,0.57686724,13.10757264,-53.130001,-118.650002,0.77,1770370262.010103
2.69763228,1.40746032,10.539196920000002,-52.779999,-94.43,11.2,1770370262.01811
2.7885906000000005,2.0130512400000002,8.487847440000001,-46.200001,-71.330002,21.139999,1770370262.026098
2.7048132000000003,2.81013336,7.1162917199999995,-39.900002,-47.32,28.77,1770370262.034163
2.5659820800000004,3.8034939600000004,6.05351556,-32.200001,-22.82,34.09,1770370262.042148
2.13273324,4.6915344,5.0984532,-29.889999,-1.47,37.869999,1770370262.050105
1.3907048400000002,5.28515712,4.18408272,-24.709999,16.17,37.869999,1770370262.058214
0.64867644,5.6585649600000005,3.1476366,-22.75,30.24,32.619999,1770370262.066398
-0.10053288,5.85005616,2.08007316,-18.129999,37.59,25.620001,1770370262.074277
-0.73245384,5.82372612,1.0340524800000002,-13.86,40.040001,13.86,1770370262.082161
-1.08431892,5.71840596,0.0359046,-10.43,39.200001,2.66,1770370262.090106
-1.19203272,5.48861652,-0.6869746800000001,-5.88,36.470001,-5.88,1770370262.098125
-1.2159691200000002,5.07691044,-1.077138,1.68,32.689999,-14.49,1770370262.106132
-1.09149984,4.64126796,-0.8736786000000001,8.68,32.48,-19.040001,1770370262.114261
-0.9598496400000001,4.452170400000001,0.23218308000000001,19.459999,39.060001,-18.83,1770370262.122088
-1.0053288,4.40190396,2.3984272800000004,27.58,50.610001,-18.34,1770370262.130104
-1.30214016,4.61733156,5.660958600000001,29.959999,63.560001,-21.209999,1770370262.138112
-1.50081228,4.686747120000001,9.1796094,24.57,79.029999,-26.67,1770370262.146274
-1.7114526,4.25349828,11.20462884,18.969999,92.330002,-30.59,1770370262.154123
-2.2260852000000004,3.31758504,12.91129416,18.690001,100.099998,-30.450001,1770370262.162099
-2.76226056,2.0345940000000002,14.45279832,19.67,98.0,-28.139999,1770370262.170097
-3.52343808,0.30399228000000006,15.565840920000001,27.51,86.239998,-14.28,1770370262.178169
-4.45935132,-1.8502837200000002,17.375432760000002,43.68,64.050003,-0.63,1770370262.186096
-5.44792464,-3.7316847600000003,19.26162108,60.34,45.779999,9.73,1770370262.194101
-5.73994872,-4.2726474,19.1969928,65.660004,38.639999,11.13,1770370262.202144
-5.146326,-4.1170608,18.5148054,50.959999,33.740002,12.53,1770370262.210116
-5.060154960000001,-4.78009908,18.02171556,39.34,36.259998,20.09,1770370262.218104
-5.167868760000001,-5.14871964,17.65070136,24.99,49.139999,21.629999,1770370262.226092
-5.7231932400000005,-5.00749488,17.68421232,12.46,64.889999,20.860001,1770370262.234111
-6.589690920000001,-4.136209920000001,17.248569840000002,-5.25,83.93,9.38,1770370262.242162
-7.5040614,-3.3032232,15.93685512,-24.08,99.68,3.43,1770370262.250106
-8.224547040000001,-2.70002592,13.86635652,-44.099998,103.599998,-4.69,1770370262.258106
-8.65540224,-2.35294812,11.59239852,-57.330002,96.529999,-13.86,1770370262.266095
-8.88519168,-1.7234208000000002,9.52429356,-63.98,80.989998,-21.280001,1770370262.274129
-8.916309,-1.02687156,8.0545986,-64.260002,58.310001,-27.23,1770370262.282084
-8.765509680000001,-0.23218308000000001,7.14262176,-59.009998,32.830002,-31.57,1770370262.290099
-8.38013364,0.4547916,6.57532908,-49.419998,11.06,-37.240002,1770370262.298104
-7.875075600000001,1.13458536,6.09660108,-41.02,-8.05,-41.369999,1770370262.30608
-7.1043235199999994,1.6994844000000002,5.129570520000001,-34.09,-26.389999,-42.07,1770370262.31411
-6.21628308,2.00587032,3.9542932800000004,-25.34,-43.330002,-41.580002,1770370262.32218
-5.39526456,2.1710314800000003,3.0279546,-20.02,-59.009998,-37.450001,1770370262.330119
-4.5886078800000005,2.29071348,2.3457672,-14.42,-72.519997,-36.959999,1770370262.338106
-3.83221764,2.3697036000000002,1.81677276,-9.45,-84.209999,-32.970001,1770370262.346201
-3.1284874800000004,2.31943716,1.3667684400000002,-4.34,-94.57,-28.209999,1770370262.354097
-2.5157156400000003,2.0896477200000003,1.0603825199999999,0.21,-106.400002,-20.51,1770370262.3621
-2.0465622,1.7449635600000002,0.95506236,5.88,-114.519997,-15.19,1770370262.370084
-1.6970907600000003,1.5438978,1.0555952400000002,12.04,-117.599998,-6.58,1770370262.378101
-1.3739493600000001,1.3404384000000003,1.5079932,18.200001,-115.919998,3.64,1770370262.386085
-1.12740444,0.9239450400000001,2.37449088,24.85,-102.269997,11.97,1770370262.394126
-1.0986807600000001,0.5481435600000001,3.78913212,33.529999,-78.050003,17.360001,1770370262.402106
-1.3308638400000001,0.13883112,5.70643776,40.950001,-38.849998,20.16,1770370262.410116
-1.76411268,-0.21782124000000003,7.877469240000001,46.759998,3.99,22.75,1770370262.41812
-2.5779502800000005,-0.6414955200000001,9.952755119999999,53.759998,44.240002,22.959999,1770370262.426102
-3.99019788,-1.18724544,11.89878444,65.309998,72.870003,22.540001,1770370262.434132
-5.866811640000001,-1.63724976,13.43789496,73.220001,82.25,21.139999,1770370262.442259
-7.91576748,-1.8981565200000001,14.3498718,78.400002,71.82,19.6,1770370262.450107
-9.813924,-2.0704986,15.003335520000002,68.739998,50.259998,18.059999,1770370262.458155
-10.64212344,-2.6689086000000004,15.374349720000001,53.970001,23.59,10.71,1770370262.466226
-10.74983724,-3.5545554,16.05174984,38.43,-8.89,9.38,1770370262.474244
-10.216055520000001,-4.57424604,16.951758480000002,25.549999,-43.119999,8.61,1770370262.482104
-8.98333092,-5.0984532,17.85176712,15.75,-79.309998,8.05,1770370262.4901
-7.420284,-5.02903764,18.589008240000002,3.64,-105.349998,6.72,1770370262.498112
-5.76388512,-4.33727568,18.8858196,-7.35,-118.510002,2.87,1770370262.50616
-4.10269896,-3.26492496,18.519592680000002,-23.799999,-119.559998,-2.73,1770370262.514122
-2.5157156400000003,-2.0417749200000004,17.1863352,-33.529999,-111.93,-4.2,1770370262.522114
-1.13937264,-0.8545294800000001,15.22833768,-44.450001,-103.739998,-3.85,1770370262.530097
-0.19627848000000003,0.03111732,12.901719600000002,-49.98,-95.620003,-1.4,1770370262.53821
0.6127718400000001,0.96703056,10.66845348,-52.57,-87.639999,8.96,1770370262.546136
1.04841432,1.555866,8.75114784,-50.889999,-80.220001,18.76,1770370262.554094
1.1369790000000002,2.16385056,7.35804936,-48.790001,-69.650002,31.360001,1770370262.562143
1.0962871200000002,2.84125068,6.386231520000001,-47.110001,-55.02,37.240002,1770370262.570104
1.0149033600000001,3.61918368,5.651384040000001,-47.32,-38.360001,41.580002,1770370262.57811
0.78272028,4.3181265600000005,4.86627012,-47.110001,-19.25,42.490002,1770370262.586101
0.38776968,4.74898176,3.8082812400000003,-46.900002,-4.9,40.25,1770370262.594186
-0.06941556,5.01946308,2.81492064,-42.0,4.83,35.209999,1770370262.602142
-0.48590892,5.19659244,1.8694328400000002,-40.25,11.06,26.32,1770370262.610108
-0.7851139200000001,5.17265604,0.89043408,-32.900002,15.05,19.74,1770370262.618107
-0.9598496400000001,4.957228440000001,0.11968200000000001,-27.299999,15.96,11.48,1770370262.626085
-0.8617104000000001,4.64126796,-0.46197252000000005,-19.32,15.75,6.23,1770370262.634156
-0.70133652,4.25589192,-0.6008036400000001,-7.63,17.92,1.54,1770370262.642124
-0.54335628,3.93035688,-0.13404384000000003,4.41,25.690001,4.55,1770370262.650111
-0.42128064000000004,3.5880663600000005,1.08192528,18.34,36.119999,5.11,1770370262.658168
-0.43564248000000005,3.40854336,3.22662672,29.75,47.810001,6.09,1770370262.666154
-0.6008036400000001,3.4013624399999998,6.33596508,31.92,60.34,3.99,1770370262.674104
-0.86410404,3.53540628,9.49317624,30.309999,75.040001,-2.73,1770370262.68218
-0.9478814400000001,3.0135927600000003,11.52777024,25.200001,85.540001,-6.65,1770370262.690102
-1.21118184,2.0561367600000002,12.767675760000001,24.85,92.050003,-8.54,1770370262.698199
-1.6516116,0.7611775199999999,13.727525400000001,25.41,94.010002,-2.45,1770370262.706137
-2.31943716,-0.86410404,14.71370508,33.529999,84.559998,8.33,1770370262.714124
-3.1284874800000004,-2.67608952,16.5879252,46.759998,66.989998,21.139999,1770370262.722186
-3.97583604,-4.26786012,18.1796958,55.509998,54.599998,27.719999,1770370262.730091
-4.330094760000001,-5.09127228,18.25389864,55.299999,49.560001,25.76,1770370262.738117
-4.18168908,-5.373721800000001,17.93554452,42.98,51.939999,24.08,1770370262.746143
-4.2128064,-5.555638440000001,17.40894372,36.119999,58.869999,27.65,1770370262.754113
-4.6747789200000005,-6.23782584,17.20069704,26.040001,70.980003,22.959999,1770370262.762108
-5.550851160000001,-6.158835720000001,17.1384624,13.86,86.660004,15.89,1770370262.770106
-6.63517008,-5.35217904,16.88234292,-2.45,101.639999,4.34,1770370262.778112
-7.501667760000001,-4.2965838,15.74536392,-19.530001,114.309998,-7.77,1770370262.786098
-8.2221534,-3.05667828,13.71076992,-33.32,113.959999,-14.56,1770370262.794192
-8.77987152,-1.92448656,11.40330096,-41.720001,103.529999,-21.700001,1770370262.80214
-9.14131116,-0.68458104,9.26099316,-45.990002,86.309998,-27.09,1770370262.810102
-9.28253592,0.43324884,7.75778724,-46.130001,62.09,-32.689999,1770370262.818176
-9.2394504,1.40506668,6.869746800000001,-42.139999,37.169998,-38.080002,1770370262.826104
-8.86125528,2.2739580000000004,6.374263320000001,-36.259998,15.47,-43.189999,1770370262.834191
-8.30114352,2.86997436,5.9122908,-29.120001,-1.96,-43.049999,1770370262.842141
-7.61416884,3.20508396,5.3449981200000005,-24.08,-16.450001,-42.84,1770370262.850112
-6.896076840000001,3.3989688000000005,4.5981824399999995,-18.41,-29.68,-43.68,1770370262.858117
-6.170803920000001,3.61200276,3.7508338800000005,-13.44,-43.470001,-41.580002,1770370262.866111
-5.349785400000001,3.83221764,3.00162456,-10.08,-58.310001,-39.900002,1770370262.874201
-4.62690612,3.9566869200000006,2.4295446,-7.98,-74.199997,-35.490002,1770370262.882135
-3.89205864,3.9495060000000004,1.95799752,-7.42,-89.949997,-30.1,1770370262.890092
-3.17875392,3.82024944,1.62528156,-5.46,-105.629997,-24.639999,1770370262.898147
-2.52050292,3.4731716400000003,1.44097128,-4.2,-120.959999,-17.780001,1770370262.906095
-2.08486044,2.9226344400000004,1.25426736,-3.15,-129.570007,-10.15,1770370262.914161
-1.63006884,2.23326612,1.27820376,3.01,-132.229996,-1.54,1770370262.922106
-1.27102284,1.68990984,1.83831552,12.46,-123.129997,6.44,1770370262.930119
-1.0412334,0.9981478800000001,3.26492496,22.33,-100.730003,10.92,1770370262.938165
-0.9119768400000001,0.47633436000000007,5.28036984,27.09,-63.07,13.44,1770370262.946101
-0.8880404399999999,-0.019149120000000002,7.31496384,31.57,-18.690001,14.21,1770370262.954108
-1.08192528,-0.6582510000000001,9.22030128,39.759998,23.24,18.27,1770370262.962133
-1.94842296,-1.5367168800000002,11.33627904,52.009998,53.830002,22.26,1770370262.970107
-3.4229052,-2.0226258,13.99321944,68.32,68.25,26.040001,1770370262.97812
-5.277976200000001,-2.19975516,17.109738720000003,73.989998,66.639999,25.76,1770370262.986182
-7.271878320000001,-2.33140536,19.0533744,69.510002,56.139999,23.870001,1770370262.99409
-8.60034852,-2.60428032,19.07252352,57.540001,42.07,21.84,1770370263.002109
-9.04317192,-3.2433822000000005,18.57225276,41.790001,19.040001,19.879999,1770370263.010105
-8.832531600000001,-4.0452516,18.131823,33.810001,-12.67,16.450001,1770370263.01811
-8.43997464,-4.5455223600000005,17.53580664,26.67,-45.43,13.09,1770370263.026118
-7.604594280000001,-4.4258403600000005,17.16000516,17.99,-68.669998,4.48,1770370263.0341
-6.50351988,-3.83700492,16.7076072,6.51,-82.949997,-2.66,1770370263.042118
-5.00749488,-2.88912348,16.17382548,-8.54,-87.150002,-8.4,1770370263.050101
-3.5497681200000004,-1.8000172800000003,15.28817868,-22.190001,-87.639999,-16.52,1770370263.058205
-2.1183714,-0.7420284,13.796940960000002,-39.200001,-85.400002,-17.99,1770370263.066858
-1.0723507200000002,-0.12446928,12.133361160000002,-49.419998,-82.389999,-14.77,1770370263.07465
-0.24415128000000003,0.17712936,10.074830760000001,-54.810001,-78.889999,-11.13,1770370263.082133
0.41888700000000006,0.68936832,8.377740000000001,-54.25,-74.199997,-1.61,1770370263.090272
0.7970821200000001,1.24708644,7.22400552,-50.889999,-67.830002,7.91,1770370263.098126
1.04602068,1.8933692400000002,6.462828000000001,-44.240002,-56.98,15.82,1770370263.106102
1.2614482800000002,2.513322,5.83569432,-40.950001,-44.869999,21.91,1770370263.114104
1.2614482800000002,3.16199844,5.2540398,-37.240002,-29.82,27.440001,1770370263.122211
1.0292652,3.7747702800000003,4.52637324,-35.419998,-16.030001,32.41,1770370263.130109
0.5912290800000001,4.1888700000000005,3.6885992400000003,-32.200001,-3.57,31.92,1770370263.138135
0.13404384000000003,4.45695768,2.7478987200000002,-30.030001,5.53,31.360001,1770370263.146099
-0.3111732,4.4641386,1.88379468,-25.48,12.95,26.950001,1770370263.154169
-0.56729268,4.3205202,1.1609154000000002,-19.110001,18.059999,20.16,1770370263.162117
-0.72527292,4.05482616,0.6869746800000001,-9.8,24.15,14.56,1770370263.1701
-0.67979376,3.7388656800000004,0.39734424,1.47,32.060001,6.58,1770370263.178111
-0.66782556,3.470778,0.5505372000000001,17.780001,42.560001,3.85,1770370263.186113
-0.74442204,3.26492496,1.2327246,27.790001,54.25,3.08,1770370263.194101
-0.81862488,3.0303482400000004,2.82210156,38.290001,63.84,-1.19,1770370263.2021
-0.9574560000000001,3.00162456,5.31627444,43.959999,75.669998,-4.9,1770370263.21017
-1.19203272,3.0279546,8.174280600000001,42.209999,90.019997,-8.89,1770370263.218102
-1.37873664,2.7215686800000003,10.347705720000002,37.869999,101.849998,-13.72,1770370263.226089
-1.8119854800000001,1.9388484000000001,11.716867800000001,31.290001,109.550003,-8.47,1770370263.234099
-2.3697036000000002,0.9933606,12.978316079999999,31.43,108.849998,-5.25,1770370263.242123
-3.0925828799999997,0.10053288,14.541363,31.780001,94.010002,5.67,1770370263.250094
-4.10269896,-0.9407005200000002,16.4802114,34.299999,73.43,12.81,1770370263.258112
-4.88541924,-2.45587464,18.08155656,37.099998,54.669998,16.030001,1770370263.266121
-4.904568360000001,-3.6287582400000002,18.323314200000002,42.98,40.459999,18.200001,1770370263.274116
-4.87345104,-3.95189964,17.75602152,40.880001,36.259998,17.43,1770370263.282099
-4.83275916,-4.18408272,17.22942072,33.32,38.360001,17.92,1770370263.290095
-5.04100584,-4.64126796,16.98048216,22.33,47.110001,18.27,1770370263.298098
-5.58436212,-4.727439,16.9828758,11.55,63.98,10.71,1770370263.306099
-6.39341244,-4.44259584,16.90867296,-4.13,81.690002,1.05,1770370263.314158
-7.295814720000001,-3.4420543200000004,16.23127284,-17.780001,97.790001,-9.17,1770370263.322183
-8.01630036,-2.12555232,14.89801536,-30.1,105.209999,-19.040001,1770370263.330121
-8.65540224,-0.86649768,12.961560600000002,-42.419998,101.57,-24.639999,1770370263.338455
-9.06710832,0.19867212,11.01313764,-48.580002,85.68,-30.799999,1770370263.346104
-9.170034840000001,1.17767088,9.05035284,-53.41,64.260002,-35.84,1770370263.354098
-9.059927400000001,1.855071,7.49448684,-54.669998,39.830002,-43.049999,1770370263.362101
-8.6051358,2.36012904,6.4364979600000005,-50.75,15.19,-45.5,1770370263.37008
-8.0067258,2.6186421600000003,5.833300680000001,-43.540001,-7.35,-47.669998,1770370263.378111
-7.32214476,2.8197079200000004,5.249252520000001,-36.75,-22.610001,-45.080002,1770370263.386085
-6.53942448,3.0135927600000003,4.428234000000001,-30.59,-37.029999,-44.169998,1770370263.394175
-5.749523280000001,3.2194458000000004,3.51146988,-20.02,-50.119999,-43.82,1770370263.402088
-4.98834576,3.45641616,2.65454676,-15.89,-63.209999,-39.48,1770370263.410105
-4.18408272,3.51625716,2.0776795200000002,-7.14,-75.739998,-37.099998,1770370263.418108
-3.4731716400000003,3.4851398400000004,1.7880490800000002,-3.43,-87.849998,-30.030001,1770370263.426096
-2.76704784,3.2290203600000003,1.6755480000000003,0.98,-97.650002,-24.85,1770370263.434103
-2.1590632800000003,2.9585390400000002,1.6492179599999999,7.42,-103.389999,-18.129999,1770370263.442127
-1.6659734400000001,2.60428032,1.5438978,13.23,-109.410004,-6.02,1770370263.450105
-1.3165020000000003,2.12555232,1.5630469200000001,15.4,-111.720001,3.85,1770370263.45814
-1.15134084,1.4720886,1.8502837200000002,22.610001,-106.610001,11.83,1770370263.46611
-1.04362704,0.57686724,2.7263559600000002,27.299999,-88.199997,22.190001,1770370263.474106
-1.03644612,-0.12686292000000002,4.34685024,32.060001,-58.66,24.639999,1770370263.482118
-1.24708644,-0.5864418,6.39341244,34.299999,-19.809999,24.639999,1770370263.490095
-1.5917706,-0.86889132,8.4256128,40.950001,23.59,25.549999,1770370263.498118
-2.55162024,-1.5941642400000002,10.728294479999999,49.209999,56.84,27.23,1770370263.506139
-4.07876256,-2.2141170000000003,12.85624044,62.23,73.360001,26.25,1770370263.514113
-6.0367600800000005,-2.6234294400000002,14.9482818,74.760002,73.220001,25.41,1770370263.522102
-8.27481348,-2.8197079200000004,16.686064440000003,74.760002,59.43,20.93,1770370263.530099
-9.852222240000001,-3.10215744,17.16718608,64.959999,41.93,13.44,1770370263.538125
-10.48174956,-3.45162888,17.17676064,49.630001,12.88,7.14,1770370263.546199
-10.66605984,-4.129029,17.1264942,35.560001,-19.389999,-1.82,1770370263.554142
-9.876158640000002,-4.634087040000001,17.155217880000002,20.58,-55.860001,-4.34,1770370263.56211
-8.317899,-4.61733156,17.59804128,12.32,-91.629997,-8.26,1770370263.570092
-6.60884004,-4.04285796,18.12224844,-0.21,-114.870003,-12.6,1770370263.578228
-4.81361004,-2.8197079200000004,18.09113112,-10.43,-125.790001,-15.33,1770370263.586102
-3.04710372,-1.60613244,17.37064548,-25.9,-125.230003,-17.57,1770370263.594158
-1.52474868,-0.35904600000000003,15.69988476,-38.009998,-119.699997,-17.92,1770370263.602097
-0.31356684,0.49548348,13.53842784,-49.630001,-113.959999,-14.98,1770370263.610094
0.7180920000000001,1.2853846800000002,11.242927080000001,-53.130001,-106.330002,-7.77,1770370263.618158
1.29974652,1.96996572,9.292110480000002,-50.540001,-97.790001,6.09,1770370263.626081
1.59895152,2.6856640800000005,7.83199008,-47.32,-85.330002,17.01,1770370263.63418
1.71623988,3.4420543200000004,6.872140440000001,-42.630001,-68.669998,26.110001,1770370263.642113
1.6683670800000001,4.32291384,6.170803920000001,-41.790001,-49.77,26.67,1770370263.650098
1.58698332,5.00749488,5.433562800000001,-41.439999,-30.870001,26.809999,1770370263.658139
1.2925655999999999,5.54606388,4.5455223600000005,-44.240002,-12.95,25.129999,1770370263.666243
0.83538036,6.02239824,3.48035256,-45.43,2.38,22.540001,1770370263.67411
0.38776968,6.060696480000001,2.39364,-44.799999,10.85,20.370001,1770370263.682104
-0.0478728,5.76388512,1.4792695200000001,-42.98,15.26,13.86,1770370263.690104
-0.25611948,5.3234553600000005,0.77553936,-36.889999,17.92,7.49,1770370263.698168
-0.33271596000000003,4.77770544,0.25611948,-28.77,21.700001,3.57,1770370263.706104
-0.33989688,4.21520004,-0.08617104,-13.44,28.280001,2.8,1770370263.714104
-0.35904600000000003,3.5808854400000003,0.09335196000000001,6.3,38.849998,4.2,1770370263.722109
-0.40213152,3.15003024,0.9861796800000001,24.780001,50.049999,3.43,1770370263.730928
-0.36143964000000006,2.82210156,2.7407178,38.360001,61.32,-2.73,1770370263.738182
-0.48112164,2.6784831600000003,5.30669988,46.34,73.220001,-6.09,1770370263.746103
-0.6558573600000001,2.71917504,8.46630468,46.619999,90.230003,-13.09,1770370263.754122
-0.90479592,2.42236368,10.943722079999999,44.099998,108.57,-13.93,1770370263.762272
-1.27341648,1.81677276,12.39187428,39.619999,119.489998,-11.13,1770370263.770094
-1.80480456,0.9071895600000001,13.45943772,38.43,123.269997,-3.85,1770370263.778109
-2.54683296,-0.01436184,15.04881468,38.57,112.559998,10.5,1770370263.786097
-3.61200276,-0.9981478800000001,17.08340868,40.880001,90.440002,20.16,1770370263.794156
-4.53355416,-2.45587464,18.85948956,41.860001,67.760002,26.25,1770370263.802288
-4.959622080000001,-3.72450384,18.46453896,37.52,53.830002,28.49,1770370263.810085
-5.04100584,-4.37078664,17.557349400000003,30.1,49.279999,30.379999,1770370263.818164
-5.10563412,-5.10563412,16.90149204,17.219999,53.900002,30.24,1770370263.826098
-5.62984128,-6.09899472,16.55680788,6.86,64.68,30.17,1770370263.834223
-6.58490364,-6.78118212,16.535265120000002,-3.57,80.360001,14.98,1770370263.8421
-7.453794960000001,-6.40538064,16.45388136,-14.7,98.769997,-1.61,1770370263.850099
-8.27481348,-5.11520868,15.96079152,-25.34,110.739998,-16.450001,1770370263.858112
-8.863648920000001,-3.3439150800000004,14.6730132,-37.59,113.330002,-23.940001,1770370263.866111
-9.2394504,-1.52474868,12.60490824,-44.939999,101.290001,-33.18,1770370263.874132
-9.454878,0.03111732,10.4482386,-51.869999,76.440002,-36.959999,1770370263.882258
-9.397430640000001,1.11782988,8.5213584,-52.779999,47.669998,-41.790001,1770370263.890096
-9.00487368,1.9292738400000002,7.0851744000000005,-53.200001,20.93,-49.0,1770370263.89811
-8.284388040000001,2.4247573200000003,6.2091021600000005,-46.34,-1.05,-49.209999,1770370263.906096
-7.609381560000001,2.69523864,5.53409568,-42.279999,-19.879999,-47.18,1770370263.914138
-6.8458104,2.8843362000000003,4.66041708,-33.459999,-32.900002,-48.509998,1770370263.922266
-6.00564276,3.15242388,3.66466284,-26.110001,-46.549999,-44.380001,1770370263.930103
-5.153506920000001,3.4612034400000002,2.7838033200000005,-16.870001,-60.060001,-43.610001,1770370263.938142
-4.437808560000001,3.7340784,2.20454244,-10.99,-72.519997,-39.48,1770370263.946101
-3.7484402400000003,3.87051588,1.8933692400000002,-7.56,-82.389999,-35.209999,1770370263.954148
-3.0901892400000004,3.77237664,1.7880490800000002,-2.87,-91.699997,-30.59,1770370263.962115
-2.4726301200000003,3.3989688000000005,1.63724976,-0.42,-98.839996,-21.0,1770370263.970156
-1.94602932,2.85800616,1.5391105200000001,1.68,-103.739998,-12.32,1770370263.978204
-1.5702278400000003,2.3984272800000004,1.4481522,6.02,-108.639999,1.26,1770370263.986129
-1.3739493600000001,1.7449635600000002,1.6875162000000001,10.01,-106.82,11.83,1770370263.994106
-1.29495924,0.8712849600000001,2.25959616,17.01,-97.019997,22.959999,1770370264.002098
-1.32607656,0.07420284,3.37981968,24.99,-72.940002,30.940001,1770370264.010086
-1.5438978,-0.53138808,5.1343578,32.549999,-33.669998,32.27,1770370264.01819
-1.9627848,-0.8090503200000001,7.1091108,39.060001,10.08,31.290001,1770370264.026099
-2.7215686800000003,-1.29495924,9.35434512,49.419998,50.119999,29.4,1770370264.034236
-3.9207823200000003,-1.8239536800000002,11.937082680000001,62.09,78.260002,24.43,1770370264.042106
-5.62026672,-2.12555232,14.608384919999999,75.739998,82.669998,21.77,1770370264.0501
-7.62613704,-2.10879684,16.52329692,80.150002,69.650002,20.93,1770370264.058243
-9.43812252,-2.27635164,17.47117836,69.720001,46.549999,16.1,1770370264.066449
-10.18254456,-2.7838033200000005,17.531019360000002,54.25,21.07,8.47,1770370264.074368
-10.534409640000002,-3.6287582400000002,17.61000948,38.360001,-7.7,1.96,1770370264.082127
-9.914456880000001,-4.535947800000001,17.473572,24.780001,-44.869999,-3.78,1770370264.090424
-8.5213584,-4.952441159999999,17.6291586,14.91,-78.610001,-5.67,1770370264.098123
-7.003790640000001,-4.82797188,17.992991879999998,5.67,-104.720001,-9.94,1770370264.1061
-5.277976200000001,-3.91838868,17.99059824,-7.42,-117.25,-11.27,1770370264.114085
-3.5665236,-2.6306103600000004,17.43527376,-17.99,-117.389999,-16.450001,1770370264.122105
-1.93166748,-1.40267304,15.85547136,-37.66,-112.489998,-13.86,1770370264.130183
-0.69894288,-0.5289944400000001,13.751461800000001,-48.02,-105.419998,-13.16,1770370264.138132
0.18909756000000003,0.18909756000000003,11.367396359999999,-55.860001,-96.32,-5.53,1770370264.146098
0.85692312,0.8880404399999999,9.287323200000001,-53.41,-86.519997,3.92,1770370264.154105
1.2231500400000002,1.5941642400000002,7.693158960000001,-49.0,-75.459999,14.07,1770370264.162113
1.35958752,2.36730996,6.62559552,-44.869999,-60.130001,24.780001,1770370264.170177
1.42182216,3.21465852,5.89314168,-39.759998,-43.119999,28.98,1770370264.17818
1.37873664,3.92317596,5.17744332,-39.830002,-27.65,32.48,1770370264.186099
1.11064896,4.61015064,4.3444566,-39.759998,-12.53,31.08,1770370264.194102
0.7300602,5.08169772,3.37742604,-40.110001,-0.14,31.709999,1770370264.202224
0.28244952,5.2301034,2.41997004,-40.110001,6.37,26.879999,1770370264.210115
-0.13643748,5.27558256,1.4194285199999999,-36.470001,10.57,21.629999,1770370264.218143
-0.37819512000000005,5.119995960000001,0.58883544,-31.99,14.42,12.6,1770370264.226101
-0.51223896,4.686747120000001,-0.02872368,-24.360001,19.809999,6.93,1770370264.234381
-0.39734424,4.25589192,-0.46436616000000003,-13.58,24.85,1.4,1770370264.242107
-0.41170608000000003,3.73647204,-0.2633004,0.21,35.349998,2.24,1770370264.250092
-0.46436616000000003,3.26253132,0.7420284,16.24,48.02,2.38,1770370264.258108
-0.61516548,3.1931157600000004,2.5588011600000002,26.110001,62.790001,-0.42,1770370264.266213
-0.7922948400000001,3.19790304,5.40244548,33.669998,77.209999,-6.44,1770370264.2741
-1.1417662800000001,3.4492352400000006,8.377740000000001,32.830002,94.010002,-11.97,1770370264.282093
-1.4242158,3.2290203600000003,10.56073968,30.1,109.970001,-17.08,1770370264.290092
-2.0082639600000003,2.49417288,11.961019080000002,26.530001,118.160004,-17.92,1770370264.298115
-2.7359305199999997,1.71863352,13.15783908,28.42,119.980003,-14.98,1770370264.306156
-3.67663104,0.70133652,14.639502240000002,29.120001,109.970001,-3.85,1770370264.314075
-4.96919664,-0.7180920000000001,16.693245360000002,36.889999,90.650002,4.55,1770370264.322084
-6.01043004,-2.20454244,18.6823602,45.990002,69.860001,10.92,1770370264.3301
-6.41974248,-3.0135927600000003,18.715871160000003,47.389999,52.360001,11.41,1770370264.338244
-6.11096292,-3.2792868000000004,17.77038336,37.310001,40.599998,12.18,1770370264.346091
-5.821332480000001,-3.88727136,17.04989772,25.200001,36.959999,17.57,1770370264.354096
-5.924259,-4.91653656,16.741118160000003,13.37,39.27,20.16,1770370264.362095
-6.50112624,-5.76388512,16.78659732,-0.77,51.799999,18.34,1770370264.370088
-7.247941920000001,-5.9841,16.78659732,-20.860001,65.379997,3.22,1770370264.378168
-7.75778724,-5.335423560000001,16.090048080000003,-37.450001,79.870003,-11.62,1770370264.386125
-8.11204596,-4.07636892,14.179923360000002,-48.860001,86.449997,-20.370001,1770370264.394114
-8.40646368,-2.6018866800000002,11.929901760000002,-55.790001,82.879997,-27.09,1770370264.402099
-8.60274216,-1.1824581600000001,9.7780194,-58.099998,67.900002,-31.290001,1770370264.410089
-8.6410404,-0.03111732,8.11204596,-54.880001,49.84,-37.310001,1770370264.418137
-8.51178384,0.74442204,7.05884436,-50.119999,30.379999,-41.93,1770370264.426138
-8.15991876,1.4122476000000002,6.29766684,-43.470001,12.04,-42.139999,1770370264.434111
-7.67640348,1.86464556,5.5173402000000005,-38.080002,-4.13,-43.610001,1770370264.442114
-7.12586628,2.2500216,4.70110896,-31.290001,-19.32,-43.470001,1770370264.450159
-6.462828000000001,2.64736584,3.9375378000000003,-25.969999,-35.139999,-42.139999,1770370264.458129
-5.82611976,2.9824754400000004,3.1332747600000004,-19.32,-48.860001,-41.369999,1770370264.46611
-5.10563412,3.13088112,2.55162024,-14.63,-62.509998,-38.779999,1770370264.47407
-4.43541492,3.08061468,2.22369156,-9.8,-76.860001,-33.040001,1770370264.48218
-3.77955756,2.8388570399999997,2.04416856,-3.22,-88.199997,-25.620001,1770370264.490165
-3.2409885600000004,2.3433735600000003,1.82156004,1.89,-98.839996,-16.450001,1770370264.498111
-2.78619696,2.06571132,1.6276752,10.57,-111.300003,-7.91,1770370264.506229
-2.41039548,1.8694328400000002,1.52714232,15.68,-120.82,2.1,1770370264.514086
-2.1159777600000003,1.44097128,1.7593254,22.75,-123.830002,8.75,1770370264.5221
-2.0298067200000003,0.78272028,2.4750237600000005,29.120001,-113.050003,18.48,1770370264.530099
-2.13991416,0.20106576,3.9375378000000003,37.169998,-85.75,22.959999,1770370264.538296
-2.3864590800000003,-0.13404384000000003,5.869205280000001,39.689999,-45.009998,24.219999,1770370264.54611
-2.7838033200000005,-0.47633436000000007,7.85592648,43.959999,-2.24,24.08,1770370264.554126
-3.6048218400000005,-1.14415992,10.19930004,50.400002,32.130001,22.68,1770370264.562106
-4.9548348,-1.70187804,12.545067240000002,62.439999,48.23,25.200001,1770370264.570109
-6.74767116,-1.9173056400000001,14.4934902,73.150002,44.029999,26.32,1770370264.578109
-8.734392360000001,-1.86464556,16.05414348,70.629997,26.459999,23.52,1770370264.586096
-10.031745240000001,-2.0345940000000002,16.80814008,55.23,6.3,18.83,1770370264.594137
-10.4482386,-2.5157156400000003,17.31559176,37.099998,-19.879999,14.91,1770370264.602099
-10.232811,-3.4731716400000003,17.791926120000003,20.23,-51.73,6.65,1770370264.610093
-9.14131116,-4.41865944,17.91878904,5.18,-83.089996,5.88,1770370264.618159
-7.45140132,-4.667598,18.09113112,-1.19,-110.459999,1.54,1770370264.626082
-5.761491480000001,-4.45935132,18.06719472,-10.22,-130.690002,-2.94,1770370264.634103
-3.9566869200000006,-3.59524728,17.69378688,-16.1,-135.449997,-7.84,1770370264.642132
-2.0824668,-2.24284068,16.7794164,-27.860001,-132.160004,-8.54,1770370264.650105
-0.54335628,-0.9454878,14.97700548,-38.57,-126.279999,-9.1,1770370264.658145
0.5505372000000001,-0.06941556,12.525918120000002,-47.669998,-117.949997,-4.9,1770370264.666127
1.36198116,0.5481435600000001,10.050894360000001,-51.52,-108.919998,5.04,1770370264.6741
1.8359218800000001,1.1489472,7.97560848,-49.77,-97.650002,18.549999,1770370264.682115
1.9603911600000001,1.7904427200000002,6.43171068,-48.02,-82.879997,30.24,1770370264.690102
2.04416856,2.37209724,5.41202004,-43.959999,-66.220001,37.310001,1770370264.698112
1.98432756,3.0375291600000005,4.579033320000001,-40.32,-47.32,41.02,1770370264.70619
1.7114526,3.5784918,3.76519572,-37.869999,-28.77,40.32,1770370264.714095
1.35480024,3.9542932800000004,3.0303482400000004,-36.330002,-11.9,39.130001,1770370264.722167
0.93112596,4.16014632,2.31943716,-36.75,-0.7,37.59,1770370264.730098
0.60559092,4.25349828,1.71863352,-35.91,8.05,27.58,1770370264.738151
0.26808768000000005,4.248711,1.24708644,-33.459999,14.7,25.200001,1770370264.746117
0.0957456,3.95189964,0.8114439600000001,-26.74,21.98,17.780001,1770370264.754097
0.03111732,3.5976409200000004,0.28484316,-16.799999,28.700001,12.32,1770370264.762099
-0.00718092,3.1691793600000002,0.01436184,-2.45,37.59,12.04,1770370264.770218
-0.08617104,2.84364432,0.39973788,15.61,47.950001,13.09,1770370264.778115
-0.10771380000000001,2.54204568,1.855071,29.540001,59.5,10.99,1770370264.786099
-0.19627848000000003,2.4127891200000002,4.1338162800000005,38.990002,72.870003,12.32,1770370264.794099
-0.3949506,2.53247112,7.33411296,45.080002,85.68,6.02,1770370264.802142
-0.64867644,2.39603364,10.529622360000001,38.57,101.220001,2.66,1770370264.810097
-0.8018694,1.7880490800000002,12.382299719999999,37.73,112.629997,1.4,1770370264.81815
-1.16570268,0.6414955200000001,13.31103204,36.959999,117.879997,2.87,1770370264.826095
-1.4601204,-0.4906962,14.63471496,42.0,110.879997,13.16,1770370264.834085
-2.23087248,-1.44097128,16.552020600000002,47.459999,94.43,23.17,1770370264.84212
-3.20269032,-2.3697036000000002,18.79246764,53.970001,75.32,31.85,1770370264.85012
-3.83700492,-3.5425872000000003,19.86242472,52.779999,62.580002,34.860001,1770370264.858107
-4.19844456,-4.234349160000001,19.4722614,38.849998,57.330002,32.759998,1770370264.866096
-4.385148480000001,-4.8590892,18.66321108,24.01,63.139999,33.740002,1770370264.874118
-4.851908280000001,-5.75191692,17.68660596,10.64,74.970001,27.09,1770370264.882234
-5.81415156,-6.266549520000001,17.076227760000002,-1.19,93.099998,18.34,1770370264.890107
-6.797937600000001,-5.65617132,16.669308960000002,-10.36,112.419998,1.54,1770370264.898109
-7.827202800000001,-4.32770112,15.87222684,-20.09,129.779999,-10.71,1770370264.906098
-8.71524324,-2.6449722,14.54854392,-29.68,137.479996,-21.700001,1770370264.914086
-9.32801508,-0.97181784,12.61208916,-39.759998,130.970001,-26.879999,1770370264.922172
-9.737327520000001,0.17712936,10.48893048,-48.860001,112.839996,-33.669998,1770370264.930094
-9.8617968,1.04362704,8.52853932,-52.639999,83.650002,-38.849998,1770370264.938195
-9.70860384,1.6396434000000002,6.941556,-52.57,48.790001,-42.84,1770370264.94627
-9.1796094,2.13991416,5.8404816,-47.110001,19.950001,-41.23,1770370264.954154
-8.41843188,2.49177924,5.131964160000001,-37.52,-6.16,-39.200001,1770370264.962096
-7.55911512,2.76704784,4.535947800000001,-28.139999,-26.110001,-36.540001,1770370264.970109
-6.72373476,3.0447100799999998,3.84897312,-18.200001,-43.119999,-35.07,1770370264.978233
-5.833300680000001,3.31040412,3.0351355200000003,-10.64,-55.790001,-30.59,1770370264.986098
-4.99792032,3.5210444400000003,2.3433735600000003,-6.93,-69.580002,-29.540001,1770370264.9941
-4.20562548,3.61200276,1.7880490800000002,-4.34,-83.510002,-24.5,1770370265.0021
-3.3822133200000004,3.5856727200000003,1.39309848,-0.35,-96.529999,-23.52,1770370265.010093
-2.6210358,3.2960422800000004,1.08192528,0.56,-109.480003,-14.84,1770370265.018173
-1.94602932,2.96332632,0.88085952,0.77,-122.639999,-7.91,1770370265.026111
-1.4242158,2.3577354,0.94309416,1.54,-129.009995,1.61,1770370265.034091
-0.9885733200000001,1.73299536,1.10586168,8.75,-129.009995,11.13,1770370265.042222
-0.73245384,1.0795316400000001,1.6851225600000002,12.81,-117.599998,18.76,1770370265.050097
-0.58165452,0.5050580400000001,2.9441772,22.610001,-91.209999,24.219999,1770370265.058136
-0.67261284,0.1555866,4.82797188,30.73,-49.419998,26.32,1770370265.066265
-0.7731457199999999,-0.14122476,7.0851744000000005,33.880001,-1.61,26.879999,1770370265.075027
-1.1010744000000001,-0.46197252000000005,9.22987584,41.650002,43.330002,25.059999,1770370265.082158
-2.22369156,-1.10825532,11.57803668,51.799999,79.449997,27.58,1770370265.090116
-4.1409972,-1.6970907600000003,14.591629440000002,68.669998,97.790001,25.059999,1770370265.098188
-6.44367888,-1.94363568,17.47117836,77.209999,98.769997,24.290001,1770370265.106191
-8.887585320000001,-2.1782124,18.85470228,73.360001,86.239998,20.790001,1770370265.114094
-10.29743928,-2.4726301200000003,18.560284560000003,58.59,66.709999,17.709999,1770370265.122109
-10.88866836,-3.15481752,18.16294032,45.220001,38.150002,11.34,1770370265.130104
-10.936541159999999,-4.06440072,17.712936000000003,31.08,-1.05,10.64,1770370265.138253
-10.299832920000002,-4.62929976,17.4975084,19.67,-42.560001,3.22,1770370265.146103
-9.079076520000001,-4.591001520000001,17.557349400000003,8.12,-76.160004,-1.33,1770370265.154101
-7.389166680000001,-4.1170608,17.45442288,-6.79,-94.919998,-7.21,1770370265.162307
-5.58436212,-3.2409885600000004,16.89191748,-24.43,-101.849998,-8.61,1770370265.170101
-3.84418584,-2.1231586800000004,15.55147908,-39.549999,-102.760002,-11.62,1770370265.178121
-2.453481,-1.16809632,13.68204624,-53.900002,-99.82,-7.35,1770370265.186101
-1.35958752,-0.32553504,11.58043032,-62.23,-96.949997,2.1,1770370265.194219
-0.47394072000000004,0.54574992,9.50514444,-63.07,-91.209999,10.43,1770370265.202134
0.12207564000000001,1.5941642400000002,7.779330000000001,-57.75,-83.860001,25.76,1770370265.210096
0.42128064000000004,2.3816718,6.690223800000001,-50.889999,-73.080002,36.540001,1770370265.218145
0.6462827999999999,3.1859348400000003,5.845268880000001,-49.209999,-63.279999,46.34,1770370265.226095
0.71569836,3.87051588,5.057761320000001,-47.669998,-51.029999,49.77,1770370265.234157
0.6821874000000001,4.40908488,4.0931244,-49.349998,-41.439999,51.380001,1770370265.242142
0.5170262400000001,4.62451248,2.9824754400000004,-49.349998,-33.18,50.68,1770370265.250096
0.25611948,4.66041708,1.88379468,-45.43,-25.690001,48.09,1770370265.258104
-0.0478728,4.44977676,1.0388397600000001,-42.139999,-19.809999,44.029999,1770370265.266187
-0.17952300000000002,4.2128064,0.36862056,-33.25,-11.48,35.209999,1770370265.274137
-0.24175764,3.89684592,0.0,-22.75,-4.9,29.889999,1770370265.2821
-0.23218308000000001,3.5928536400000004,-0.22021488,-11.55,4.62,24.639999,1770370265.290098
-0.18191664000000002,3.3439150800000004,0.02872368,7.21,16.59,20.370001,1770370265.298104
-0.11968200000000001,3.2002966800000006,0.9813924,20.790001,30.73,16.450001,1770370265.306216
-0.17473572,3.2840740800000003,2.6808768000000005,34.650002,46.830002,12.6,1770370265.314083
-0.36862056,3.5066826,5.27318892,42.700001,65.449997,5.25,1770370265.322103
-0.62474004,3.7029610800000006,8.41603824,39.689999,87.849998,-1.75,1770370265.33009
-0.9071895600000001,3.4468416000000004,10.65409164,32.759998,107.449997,-8.47,1770370265.338277
-1.48645044,2.5827375600000004,11.99692368,23.030001,124.529999,-10.78,1770370265.346085
-2.1806060400000002,1.4840568,13.385234880000002,19.110001,132.929993,-10.15,1770370265.354109
-3.16678572,0.43085520000000005,15.32168964,21.139999,128.169998,0.98,1770370265.362119
-4.634087040000001,-0.8880404399999999,18.21320676,24.01,109.970001,9.03,1770370265.37025
-5.648990400000001,-2.69763228,20.3339718,28.42,87.779999,14.98,1770370265.378122
-6.31442232,-3.83700492,19.96056396,31.85,68.110001,17.5,1770370265.386107
-6.364688760000001,-4.1673272400000005,18.49804992,22.33,51.240002,20.02,1770370265.394099
-6.285698640000001,-4.87584468,17.25575076,10.29,43.68,21.42,1770370265.402097
-6.52984992,-5.356966320000001,16.6717026,0.77,45.779999,23.450001,1770370265.410231
-7.121079,-5.579574840000001,16.63340436,-11.41,58.59,14.21,1770370265.418144
-7.75299996,-4.99792032,16.29590112,-27.440001,77.349998,0.84,1770370265.426099
-8.198217,-3.8298240000000003,14.90519628,-41.439999,92.190002,-12.25,1770370265.434101
-8.43997464,-2.39364,12.569003640000002,-51.310001,95.900002,-22.049999,1770370265.442099
-8.557263,-0.9335196,10.07004348,-58.869999,87.010002,-24.709999,1770370265.450109
-8.63864676,-0.06941556,8.1144396,-61.950001,71.330002,-28.629999,1770370265.458096
-8.557263,0.49787712,6.699798360000001,-60.34,52.009998,-30.66,1770370265.466095
-8.31311172,0.9646369200000001,5.69925684,-56.209999,31.57,-30.59,1770370265.474254
-7.91576748,1.18006452,5.0027076,-49.77,13.44,-31.780001,1770370265.4821
-7.33171932,1.42660944,4.37557392,-42.0,-4.06,-29.33,1770370265.490101
-6.62080824,1.70427168,3.6526946400000004,-33.110001,-23.799999,-29.889999,1770370265.49811
-5.941014480000001,1.9532102400000002,2.8197079200000004,-23.52,-42.560001,-28.91,1770370265.506104
-5.263614360000001,2.14948872,2.15666964,-18.969999,-61.32,-26.530001,1770370265.514191
-4.634087040000001,2.38406544,1.7306017200000001,-15.75,-76.860001,-29.33,1770370265.522134
-3.83700492,2.46066192,1.52953596,-13.65,-92.470001,-25.059999,1770370265.530096
-3.0830083200000002,2.22129792,1.34522568,-11.97,-106.68,-23.66,1770370265.53811
-2.4654492,1.69469712,1.10586168,-11.48,-118.720001,-14.0,1770370265.546153
-1.94602932,1.10825532,1.06277616,-7.42,-127.190002,-6.44,1770370265.554119
-1.5151741200000002,0.47872800000000004,1.40267304,-0.07,-128.380005,4.55,1770370265.5621
-1.2207564,-0.17234208,2.2260852000000004,11.13,-118.720001,18.48,1770370265.570096
-1.13458536,-0.7851139200000001,3.76040844,22.75,-93.169998,25.620001,1770370265.578146
-1.40506668,-1.31410836,5.70165048,36.189999,-52.779999,31.780001,1770370265.586102
-1.8766137600000001,-1.8119854800000001,7.7649681600000005,50.68,-0.56,33.950001,1770370265.594134
-2.71438776,-2.4822046799999997,9.99105336,68.459999,44.939999,34.09,1770370265.602129
-4.2726474,-2.9274217200000003,12.355969680000001,85.959999,75.110001,31.85,1770370265.610102
-6.35750784,-2.90587896,14.31875448,101.150002,82.599998,30.66,1770370265.618139
-8.480666520000002,-2.4510873600000003,15.34562604,103.949997,71.470001,29.049999,1770370265.626082
-10.2687156,-2.1806060400000002,16.269571080000002,93.099998,51.029999,22.190001,1770370265.634088
-11.111276880000002,-2.4056082,16.872768360000002,72.239998,21.42,17.92,1770370265.64212
-11.10409596,-3.3343405200000005,17.3658582,49.84,-13.79,8.05,1770370265.650165
-10.060468920000002,-4.40908488,17.94272544,32.34,-53.200001,5.6,1770370265.658124
-8.30353716,-4.61015064,18.763743960000003,17.99,-93.870003,3.29,1770370265.666103
-6.678255600000001,-4.16253996,19.3047066,5.11,-119.769997,-0.63,1770370265.674098
-4.81839732,-3.05428464,19.04858712,-10.43,-131.110001,-3.5,1770370265.682242
-2.92502808,-1.71384624,17.90921448,-25.200001,-130.619995,-3.29,1770370265.690097
-1.27341648,-0.7180920000000001,15.96318516,-39.619999,-125.089996,-4.76,1770370265.698114
-0.019149120000000002,0.16037388000000002,13.64853528,-46.900002,-118.230003,-1.19,1770370265.7061
0.9574560000000001,0.9239450400000001,11.22138432,-49.84,-108.360001,6.93,1770370265.71409
1.58698332,1.7306017200000001,9.10540656,-45.709999,-96.32,17.99,1770370265.722175
1.86464556,2.333799,7.53517872,-40.32,-79.870003,28.209999,1770370265.730104
2.08725408,2.95375176,6.41734884,-36.68,-60.900002,37.59,1770370265.738176
2.06092404,3.5425872000000003,5.349785400000001,-39.41,-40.880001,42.279999,1770370265.746233
1.88618832,3.9088141199999997,4.394723040000001,-40.880001,-22.75,45.220001,1770370265.754102
1.55347236,4.13142264,3.4827462000000002,-40.950001,-4.55,47.389999,1770370265.762106
1.0962871200000002,4.25349828,2.55640752,-40.740002,8.4,43.400002,1770370265.770094
0.5601117600000001,4.2104127600000005,1.83352824,-37.66,18.129999,39.48,1770370265.778092
0.09813924000000002,4.0931244,1.1250108,-33.389999,25.059999,34.299999,1770370265.786109
-0.20585304000000001,3.92796324,0.5170262400000001,-26.459999,30.379999,23.450001,1770370265.794121
-0.45239796,3.7460466,0.0023936400000000003,-16.24,34.860001,18.34,1770370265.802176
-0.5289944400000001,3.59046,-0.23936400000000002,-3.57,39.970001,12.6,1770370265.810122
-0.58404816,3.2960422800000004,0.02154276,11.55,48.02,10.29,1770370265.818147
-0.6199527600000001,3.23859492,1.0723507200000002,25.9,59.360001,6.3,1770370265.826097
-0.80665668,3.3367341600000002,2.7814096800000003,37.099998,72.029999,3.01,1770370265.834128
-1.10586168,3.66705648,5.672926800000001,40.669998,89.809998,-7.0,1770370265.842418
-1.2829910400000002,3.83700492,8.7248178,37.73,107.800003,-16.309999,1770370265.850089
-1.63006884,3.63115188,11.120851440000001,33.880001,125.650002,-20.02,1770370265.858112
-2.3218308000000003,2.692845,12.743739360000001,28.77,138.179993,-26.32,1770370265.866101
-3.1811475600000003,1.735389,14.175136080000001,28.0,141.679993,-20.93,1770370265.874118
-4.330094760000001,0.54335628,16.06850532,28.07,130.059998,-14.42,1770370265.882104
-5.51494656,-1.1585217600000002,18.86667048,32.970001,102.059998,-3.85,1770370265.890283
-6.5968718399999995,-3.05667828,20.52306936,40.110001,75.879997,4.55,1770370265.898109
-7.03490796,-3.67663104,20.0108304,41.299999,54.669998,5.32,1770370265.906098
-6.61362732,-3.7388656800000004,18.60097644,28.0,37.380001,11.06,1770370265.91408
-6.386231520000001,-4.62451248,17.73926604,11.55,30.24,13.72,1770370265.922106
-6.4149552,-5.31148716,17.31080448,-1.68,34.720001,17.92,1770370265.930274
-6.87692772,-5.79978972,17.02835496,-16.799999,50.400002,14.84,1770370265.938105
-7.53278508,-5.239677960000001,16.09483536,-30.1,71.120003,4.97,1770370265.946117
-7.99954488,-4.607757,14.515032960000001,-45.009998,85.330002,-8.12,1770370265.954088
-8.17667424,-3.43247976,12.305703240000001,-56.419998,89.669998,-14.56,1770370265.962117
-8.3059308,-2.1183714,9.93839328,-62.790001,82.809998,-19.25,1770370265.970168
-8.497422,-0.7683584400000001,8.15991876,-62.650002,65.309998,-21.700001,1770370265.97811
-8.574018480000001,0.0239364,7.0516634400000004,-61.32,46.830002,-26.32,1770370265.986106
-8.42321916,0.80426304,6.2593686,-53.41,27.370001,-29.469999,1770370265.994122
-8.01390672,1.0723507200000002,5.627447640000001,-46.48,9.03,-30.1,1770370266.002101
-7.477731360000001,1.3859175600000002,4.784886360000001,-36.75,-7.98,-31.43,1770370266.010095
-6.7931503200000005,1.7234208000000002,3.84418584,-27.02,-25.129999,-34.509998,1770370266.018156
-6.0798456000000005,2.06092404,2.9752945200000003,-21.35,-41.650002,-34.369999,1770370266.026123
-5.2684016399999996,2.3816718,2.4032145600000003,-17.780001,-57.959999,-35.84,1770370266.034097
-4.51440504,2.59231212,1.9867212,-13.65,-74.059998,-35.07,1770370266.042118
-3.8058876000000006,2.4415128,1.75214448,-11.9,-87.360001,-34.02,1770370266.050288
-3.0925828799999997,1.92209292,1.6516116,-7.7,-98.980003,-28.139999,1770370266.058147
-2.4510873600000003,1.51038684,1.4122476000000002,-4.97,-106.260002,-22.26,1770370266.066307
-1.9723593600000002,1.16570268,1.29735288,2.1,-114.379997,-13.79,1770370266.074359
-1.61091972,0.85692312,1.6037388,10.43,-114.169998,0.07,1770370266.08213
-1.33804476,0.3829824,2.4247573200000003,22.469999,-105.839996,10.85,1770370266.090114
-1.21118184,-0.04308552,3.7508338800000005,38.009998,-84.07,22.190001,1770370266.098198
-1.45293948,-0.44042976,5.50058472,49.209999,-50.959999,28.35,1770370266.106104
-1.96996572,-0.69894288,7.2886338,60.619999,-6.79,31.57,1770370266.114091
-2.76704784,-1.27102284,9.01684188,73.220001,32.48,30.66,1770370266.122096
-4.22716824,-1.82874096,10.615793400000001,86.730003,61.669998,29.469999,1770370266.130165
-5.9841,-2.32661808,12.109424760000001,100.519997,73.43,27.58,1770370266.138123
