acc_x,acc_y,acc_z,gyro_x,gyro_y,gyro_z,timestamp
-0.35624,0.11224,0.869616,-2.1,-36.119999,-28.559999,1770370254.754028
-0.338428,0.094672,0.842044,-4.48,-33.110001,-28.98,1770370254.762135
-0.328912,0.079544,0.833992,-6.23,-30.24,-26.040001,1770370254.770163
-0.323788,0.072712,0.838384,-6.51,-27.440001,-29.469999,1770370254.778204
-0.327448,0.0793,0.848144,-9.1,-25.27,-27.719999,1770370254.786099
-0.328912,0.0915,0.85278,-9.87,-24.360001,-28.35,1770370254.794114
-0.33306,0.096624,0.841312,-11.69,-25.27,-27.299999,1770370254.802097
-0.323544,0.093696,0.822768,-11.9,-28.700001,-23.870001,1770370254.81033
-0.314028,0.076372,0.80764,-11.55,-30.66,-22.75,1770370254.818112
-0.302804,0.057096,0.82838,-10.57,-34.23,-19.6,1770370254.826089
-0.288896,0.05368,0.887672,-10.22,-33.880001,-18.690001,1770370254.834102
-0.271572,0.043432,0.959408,-10.08,-30.309999,-15.96,1770370254.842105
-0.263276,0.030012,1.027728,-10.36,-25.27,-15.47,1770370254.850102
-0.255468,0.012688,1.071404,-9.87,-21.139999,-14.35,1770370254.85811
-0.25498,-0.00488,1.086288,-9.1,-19.389999,-11.48,1770370254.866117
-0.255956,-0.03538,1.07726,-8.12,-18.76,-11.83,1770370254.874087
-0.260104,-0.069784,1.053592,-6.93,-19.879999,-9.17,1770370254.882103
-0.265472,-0.105408,1.03334,-2.52,-19.879999,-10.71,1770370254.890098
-0.269132,-0.136152,1.031632,0.91,-18.83,-8.12,1770370254.89815
-0.2745,-0.155672,1.059448,4.55,-16.030001,-5.6,1770370254.906287
-0.284016,-0.167872,1.090192,8.54,-15.26,-5.32,1770370254.914104
-0.293532,-0.171044,1.108492,12.6,-13.58,-4.97,1770370254.922101
-0.306464,-0.161528,1.109956,14.77,-14.21,-2.03,1770370254.930105
-0.314028,-0.14396,1.108492,19.879999,-14.84,-4.69,1770370254.938312
-0.316956,-0.11834,1.108004,19.879999,-16.73,-0.28,1770370254.946099
-0.321104,-0.083692,1.0919,20.860001,-19.110001,-3.99,1770370254.954103
-0.315004,-0.055388,1.075308,19.459999,-21.42,-5.81,1770370254.962107
-0.305488,-0.024156,1.063108,17.92,-23.379999,-4.9,1770370254.970265
-0.296216,-0.002684,1.034072,14.56,-27.860001,-7.0,1770370254.978118
-0.274744,0.009516,0.998692,9.87,-33.040001,-7.35,1770370254.986102
-0.25132,0.00854,0.95526,7.56,-37.869999,-10.15,1770370254.994083
-0.223748,0.005124,0.92598,6.23,-42.77,-12.95,1770370255.002101
-0.175192,0.002928,0.919148,4.41,-47.880001,-13.65,1770370255.010281
-0.125416,0.002928,0.938912,4.97,-52.220001,-17.01,1770370255.01811
-0.070516,0.005856,0.962824,4.2,-54.110001,-18.9,1770370255.026158
-0.01586,0.008784,0.9699,4.55,-56.0,-20.02,1770370255.034101
0.033184,0.006588,0.965752,6.65,-55.09,-20.860001,1770370255.042126
0.083936,0.009516,0.957212,7.91,-52.639999,-21.35,1770370255.050121
0.13542,0.022448,0.957212,13.23,-47.669998,-24.5,1770370255.058245
0.178364,0.043188,0.9577,14.42,-41.369999,-21.209999,1770370255.06634
0.22082,0.07564,0.965264,17.639999,-32.200001,-22.959999,1770370255.074847
0.25254,0.119316,0.976488,19.25,-20.16,-21.49,1770370255.082255
0.279624,0.163968,0.981856,20.440001,-7.0,-19.040001,1770370255.090103
0.28914,0.205692,0.982344,21.209999,8.82,-16.870001,1770370255.098158
0.285724,0.237412,0.989176,20.23,24.5,-11.06,1770370255.106151
0.267668,0.255468,1.009916,17.780001,41.369999,-9.24,1770370255.114119
0.233508,0.254004,1.05164,12.04,58.869999,2.03,1770370255.122105
0.1769,0.244244,1.109224,4.9,77.209999,8.68,1770370255.13011
0.101016,0.24644,1.153144,-1.12,93.309998,14.35,1770370255.13818
0.004636,0.26352,1.142164,-8.47,106.330002,21.280001,1770370255.146094
-0.103212,0.297436,1.09068,-15.33,116.970001,18.83,1770370255.154109
-0.200812,0.314516,1.033828,-20.790001,124.389999,19.110001,1770370255.162218
-0.285236,0.299876,0.987956,-27.440001,127.82,17.15,1770370255.170178
-0.366244,0.247172,0.956724,-29.4,129.220001,13.86,1770370255.178273
-0.436516,0.17324,0.958432,-30.870001,127.190002,10.92,1770370255.186102
-0.503616,0.092476,0.95892,-27.370001,122.639999,10.5,1770370255.194104
-0.557784,0.0427,0.941352,-23.1,113.400002,5.95,1770370255.202119
-0.60512,0.010492,0.921344,-18.690001,98.839996,3.99,1770370255.210125
-0.629764,0.002684,0.906704,-15.19,82.32,1.96,1770370255.218104
-0.643672,-0.009272,0.90402,-15.47,62.790001,1.75,1770370255.226092
-0.64416,-0.042944,0.91378,-13.65,43.119999,-1.61,1770370255.234091
-0.636596,-0.111752,0.951356,-12.25,28.84,-0.84,1770370255.242085
-0.633668,-0.202764,0.985272,-11.76,20.51,-3.22,1770370255.250166
-0.6344,-0.266936,0.961604,-8.12,15.54,-4.76,1770370255.258207
-0.630496,-0.296216,0.910852,-5.11,16.030001,-5.88,1770370255.266088
-0.622688,-0.290116,0.87596,0.91,15.75,-9.73,1770370255.274096
-0.61976,-0.283528,0.865712,1.89,16.379999,-10.15,1770370255.282128
-0.611952,-0.284992,0.875472,2.24,14.7,-15.12,1770370255.290096
-0.597312,-0.295972,0.881328,-0.56,11.97,-17.43,1770370255.298182
-0.57828,-0.315736,0.901092,-0.35,8.19,-17.99,1770370255.30609
-0.560468,-0.340624,0.928664,2.03,5.32,-20.370001,1770370255.314144
-0.539972,-0.349896,0.943792,6.09,-0.49,-18.620001,1770370255.322097
-0.50752,-0.352092,0.950136,8.75,-5.04,-14.56,1770370255.330098
-0.484096,-0.352092,0.950868,11.2,-5.74,-13.72,1770370255.338111
-0.450668,-0.308904,0.942328,13.51,-7.56,-10.36,1770370255.346187
-0.429684,-0.268644,0.9333,13.51,-5.39,-6.09,1770370255.354097
-0.413336,-0.220088,0.905728,10.57,-4.13,-5.81,1770370255.362095
-0.390888,-0.18788,0.880352,8.19,0.21,-3.01,1770370255.370082
-0.370636,-0.170556,0.866932,5.53,6.86,-1.96,1770370255.378109
-0.368928,-0.166408,0.858148,3.92,14.49,3.78,1770370255.386127
-0.388692,-0.15738,0.853512,3.43,22.049999,3.22,1770370255.394129
-0.421388,-0.161528,0.852048,5.53,29.4,8.4,1770370255.402152
-0.475068,-0.15738,0.862296,7.14,38.360001,12.95,1770370255.410116
-0.530944,-0.153476,0.86742,8.89,41.93,16.450001,1770370255.418111
-0.58804,-0.143716,0.857416,11.34,44.799999,21.280001,1770370255.426101
-0.641476,-0.123464,0.840092,12.53,46.549999,22.049999,1770370255.434251
-0.691008,-0.090036,0.819352,15.12,46.48,23.870001,1770370255.44212
-0.734928,-0.067344,0.806664,15.89,45.009998,23.1,1770370255.450106
-0.769576,-0.02806,0.801052,17.290001,42.349998,26.389999,1770370255.458112
-0.807884,0.009028,0.804224,17.57,37.59,25.9,1770370255.466131
-0.840092,0.047824,0.809104,15.96,30.799999,22.959999,1770370255.474143
-0.86376,0.076616,0.816668,16.1,21.209999,23.309999,1770370255.482103
-0.873276,0.103456,0.826672,16.450001,11.06,19.950001,1770370255.490118
-0.867908,0.133712,0.829844,16.52,-1.26,15.54,1770370255.49817
-0.857416,0.152988,0.813984,17.219999,-14.0,13.51,1770370255.506103
-0.845948,0.159332,0.771772,19.67,-23.940001,7.91,1770370255.514111
-0.822768,0.165432,0.726144,20.23,-31.780001,5.46,1770370255.522101
-0.797148,0.181536,0.700036,19.879999,-38.360001,-4.9,1770370255.530154
-0.77348,0.209596,0.72102,20.02,-38.779999,-5.11,1770370255.538191
-0.74664,0.244,0.77592,14.0,-35.98,-15.4,1770370255.546111
-0.716628,0.278892,0.830332,8.19,-32.759998,-22.68,1770370255.554085
-0.671732,0.30988,0.864492,1.47,-31.99,-31.360001,1770370255.562106
-0.628056,0.322812,0.874984,-4.76,-35.560001,-32.27,1770370255.570102
-0.589016,0.32208,0.86864,-9.24,-41.16,-33.459999,1770370255.578205
-0.547048,0.30622,0.857904,-11.76,-48.790001,-31.360001,1770370255.586148
-0.500688,0.27572,0.85766,-17.99,-56.209999,-30.379999,1770370255.59409
-0.458232,0.24278,0.872056,-19.74,-61.599998,-30.73,1770370255.602103
-0.414312,0.216184,0.896944,-22.75,-65.169998,-27.370001,1770370255.610375
-0.382592,0.200568,0.918416,-24.639999,-65.379997,-26.32,1770370255.618159
-0.357704,0.186904,0.93086,-24.99,-65.589996,-23.17,1770370255.626088
-0.339892,0.169336,0.92598,-29.75,-62.650002,-19.040001,1770370255.634183
-0.333548,0.134688,0.894748,-30.24,-61.110001,-18.690001,1770370255.642108
-0.327692,0.095404,0.862296,-30.450001,-58.450001,-15.75,1770370255.650088
-0.319884,0.03782,0.863272,-29.889999,-54.110001,-16.870001,1770370255.658111
-0.315248,-0.01464,0.896212,-25.549999,-47.880001,-15.4,1770370255.666102
-0.316712,-0.071004,0.945256,-23.66,-39.48,-14.63,1770370255.67417
-0.329644,-0.119316,0.99552,-17.43,-33.25,-16.24,1770370255.682105
-0.336232,-0.167628,1.04798,-15.61,-28.77,-14.42,1770370255.69033
-0.340624,-0.213988,1.072868,-9.8,-30.24,-16.24,1770370255.698169
-0.340136,-0.256444,1.083848,-3.08,-33.669998,-15.47,1770370255.706099
-0.336232,-0.284016,1.083604,-0.21,-40.459999,-17.639999,1770370255.7141
-0.330864,-0.296704,1.07726,6.65,-46.34,-15.68,1770370255.722114
-0.322324,-0.30866,1.060424,6.3,-51.029999,-13.65,1770370255.730106
-0.30744,-0.317444,1.037244,8.12,-53.970001,-13.3,1770370255.738111
-0.289384,-0.33184,1.006256,8.68,-54.110001,-12.74,1770370255.746096
-0.266204,-0.341112,0.991128,7.7,-57.119999,-14.21,1770370255.754088
-0.243268,-0.350872,0.980392,9.8,-57.540001,-14.28,1770370255.762118
-0.213744,-0.349896,0.971608,8.89,-57.119999,-16.66,1770370255.770107
-0.181292,-0.353312,0.976244,11.76,-57.540001,-16.24,1770370255.778109
-0.145424,-0.352092,0.990884,13.02,-55.650002,-18.9,1770370255.786102
-0.112484,-0.344528,1.024556,15.19,-54.110001,-19.6,1770370255.794085
-0.07686,-0.319396,1.052372,19.040001,-54.669998,-20.58,1770370255.802187
-0.05002,-0.281576,1.06872,17.780001,-54.18,-20.93,1770370255.810187
-0.022204,-0.248392,1.059448,14.07,-52.779999,-20.58,1770370255.818121
0.00244,-0.220332,1.046272,13.3,-52.360001,-20.93,1770370255.826098
0.021472,-0.1952,1.035536,11.76,-48.439999,-21.84,1770370255.834164
0.043188,-0.156648,1.03334,11.69,-45.43,-22.959999,1770370255.842098
0.061,-0.10492,1.025044,10.92,-40.669998,-22.049999,1770370255.850094
0.071248,-0.043188,1.004548,8.96,-35.77,-23.52,1770370255.858177
0.08296,0.014884,0.99064,9.8,-28.559999,-21.700001,1770370255.866109
0.092232,0.070272,0.972096,7.21,-19.6,-21.35,1770370255.874081
0.099796,0.126392,0.963556,10.78,-12.18,-16.450001,1770370255.882107
0.096624,0.17324,0.95648,9.87,0.49,-12.18,1770370255.890104
0.087352,0.188856,0.955748,10.57,13.93,-5.81,1770370255.898151
0.061,0.18422,0.940376,12.67,26.6,-1.54,1770370255.906211
0.027084,0.18056,0.93818,11.2,36.400002,3.29,1770370255.914109
-0.007808,0.188368,0.94062,13.09,47.110001,5.11,1770370255.922122
-0.04514,0.20008,0.94184,13.79,54.669998,8.26,1770370255.930103
-0.090524,0.21228,0.94306,13.86,56.77,9.03,1770370255.938109
-0.138348,0.24278,0.942328,14.21,58.240002,10.64,1770370255.946119
-0.183976,0.271328,0.937204,11.69,55.02,7.7,1770370255.954136
-0.224236,0.282796,0.930128,9.66,49.77,7.0,1770370255.962224
-0.250588,0.2806,0.941108,3.78,44.380001,4.55,1770370255.970095
-0.270352,0.260104,0.963556,3.01,36.189999,2.17,1770370255.978109
-0.279624,0.233508,0.98698,-1.26,29.82,-0.63,1770370255.986111
-0.286944,0.197396,1.017968,-4.13,24.15,-1.89,1770370255.994146
-0.299632,0.172264,1.045784,-5.6,21.139999,-5.32,1770370256.002222
-0.315736,0.152012,1.07116,-8.68,22.75,-6.72,1770370256.010174
-0.33306,0.136884,1.093852,-13.72,27.16,-10.01,1770370256.018179
-0.35624,0.121024,1.119716,-22.190001,31.92,-13.44,1770370256.026103
-0.380884,0.093208,1.10044,-28.629999,35.139999,-14.07,1770370256.034219
-0.413824,0.054412,1.035536,-31.219999,37.029999,-20.58,1770370256.042106
-0.438956,0.010004,0.957944,-31.290001,34.790001,-20.370001,1770370256.0501
-0.45994,-0.017568,0.892552,-29.469999,30.24,-26.110001,1770370256.058219
-0.471652,-0.04148,0.843264,-27.299999,21.91,-26.950001,1770370256.06628
-0.476776,-0.061244,0.807396,-26.32,9.94,-29.469999,1770370256.074653
-0.4758,-0.060024,0.814228,-22.889999,0.07,-28.77,1770370256.082106
-0.462868,-0.034648,0.872056,-24.219999,-10.71,-29.540001,1770370256.09011
-0.43676,-0.00854,0.945256,-24.15,-20.440001,-27.93,1770370256.098151
-0.406504,-0.02562,1.010648,-24.360001,-28.700001,-24.08,1770370256.106096
-0.36722,-0.091256,1.048712,-23.59,-36.259998,-20.370001,1770370256.114273
-0.327204,-0.166408,1.042856,-21.07,-37.66,-12.53,1770370256.122097
-0.282796,-0.224968,1.019676,-19.040001,-35.98,-5.46,1770370256.130103
-0.247904,-0.2806,0.992104,-14.77,-31.43,0.28,1770370256.138108
-0.211792,-0.323056,0.969168,-7.21,-25.27,6.16,1770370256.146133
-0.197884,-0.35868,0.942572,-0.42,-14.35,8.12,1770370256.154164
-0.187636,-0.382348,0.927688,8.33,-4.9,10.85,1770370256.162088
-0.186416,-0.383568,0.91866,14.42,5.74,14.56,1770370256.170103
-0.195688,-0.35868,0.904752,20.51,14.49,16.309999,1770370256.178106
-0.207644,-0.322324,0.910608,23.870001,19.809999,17.43,1770370256.186115
-0.220088,-0.297436,0.927688,23.1,24.5,23.24,1770370256.194141
-0.242292,-0.276452,0.945256,22.469999,30.52,26.879999,1770370256.202108
-0.270596,-0.26962,0.95526,19.110001,34.93,31.57,1770370256.210214
-0.31598,-0.255956,0.976488,20.58,39.830002,36.75,1770370256.218122
-0.375028,-0.237168,1.006012,19.459999,45.57,38.43,1770370256.226125
-0.434808,-0.21106,1.040904,18.76,46.830002,40.669998,1770370256.234101
-0.49898,-0.184952,1.07116,17.43,46.549999,39.48,1770370256.242118
-0.545096,-0.162016,1.069452,15.19,42.700001,40.669998,1770370256.250094
-0.584136,-0.1464,1.05164,13.51,36.470001,40.459999,1770370256.258097
-0.6161,-0.12444,1.022848,13.44,30.450001,40.25,1770370256.266073
-0.62586,-0.098332,0.98332,9.66,22.959999,40.599998,1770370256.274097
-0.628544,-0.076616,0.954772,9.66,16.940001,39.34,1770370256.282112
-0.622444,-0.050508,0.934764,7.35,12.18,36.540001,1770370256.290107
-0.605852,-0.022204,0.915,5.53,7.98,34.580002,1770370256.298144
-0.585844,0.001464,0.88206,6.72,3.92,31.5,1770370256.306093
-0.566568,0.02074,0.85522,8.89,1.54,26.67,1770370256.31426
-0.554368,0.05124,0.839604,11.62,0.63,22.959999,1770370256.322097
-0.54412,0.075884,0.814716,15.54,1.26,18.34,1770370256.330095
-0.532896,0.103944,0.776408,19.530001,0.42,15.82,1770370256.338105
-0.531188,0.130784,0.742492,25.549999,-1.26,10.36,1770370256.346092
-0.525088,0.17324,0.733464,27.65,-0.49,8.61,1770370256.354082
-0.531188,0.205692,0.730536,26.110001,1.4,2.38,1770370256.362098
-0.543388,0.238144,0.759084,24.43,5.74,-1.61,1770370256.370094
-0.550464,0.269376,0.831552,20.440001,8.75,-8.47,1770370256.378105
-0.553636,0.292312,0.908168,12.46,12.18,-13.65,1770370256.386094
-0.552416,0.301584,0.949892,2.31,7.56,-17.57,1770370256.394097
-0.526064,0.283284,0.963556,-4.06,-1.12,-20.16,1770370256.402108
-0.493612,0.254004,0.95282,-10.99,-13.58,-21.280001,1770370256.410101
-0.451644,0.221552,0.935008,-14.77,-29.889999,-15.68,1770370256.41827
-0.4087,0.197884,0.925492,-17.360001,-45.990002,-11.41,1770370256.426101
-0.366732,0.162748,0.912804,-18.549999,-55.02,-9.45,1770370256.434094
-0.322812,0.127856,0.881816,-15.89,-65.309998,-4.2,1770370256.442607
-0.2867,0.103456,0.874984,-12.74,-68.459999,-3.29,1770370256.450103
-0.253028,0.093452,0.902312,-8.68,-66.290001,-2.31,1770370256.458278
-0.222284,0.086132,0.959896,-12.25,-57.68,-6.09,1770370256.466101
-0.193736,0.064904,1.026508,-14.42,-46.200001,-8.96,1770370256.474102
-0.16836,0.02928,1.087996,-16.309999,-33.740002,-13.16,1770370256.482126
-0.158844,-0.014884,1.131184,-16.379999,-17.780001,-12.39,1770370256.490122
-0.159088,-0.062464,1.152168,-12.74,-5.25,-17.57,1770370256.498162
-0.168604,-0.117852,1.162904,-6.44,1.26,-15.19,1770370256.5061
-0.177144,-0.17446,1.157048,-0.77,1.19,-18.48,1770370256.514166
-0.193248,-0.221308,1.149972,7.21,-0.42,-15.89,1770370256.522098
-0.212524,-0.255712,1.1407,10.99,-4.69,-17.01,1770370256.530107
-0.23668,-0.275476,1.125572,14.42,-5.81,-13.86,1770370256.538114
-0.255224,-0.296704,1.103124,15.33,-8.26,-12.67,1770370256.546132
-0.27206,-0.307928,1.083116,15.54,-9.94,-11.13,1770370256.554185
-0.286456,-0.315492,1.066524,14.35,-13.79,-8.05,1770370256.562126
-0.286212,-0.314516,1.052128,13.65,-17.709999,-10.57,1770370256.570104
-0.281088,-0.311588,1.041392,11.9,-22.33,-10.71,1770370256.578113
-0.265228,-0.305976,1.021384,10.22,-27.440001,-18.549999,1770370256.586096
-0.2318,-0.28792,1.010648,9.45,-34.02,-20.370001,1770370256.594126
-0.197152,-0.276696,1.022116,9.1,-39.060001,-25.200001,1770370256.602267
-0.15616,-0.25254,1.039684,8.75,-40.669998,-26.18,1770370256.61019
-0.120048,-0.232776,1.06018,7.98,-40.880001,-27.790001,1770370256.618126
-0.084668,-0.198616,1.069208,6.65,-42.349998,-28.91,1770370256.626082
-0.051972,-0.165188,1.063596,3.64,-42.700001,-27.790001,1770370256.634156
-0.024644,-0.125904,1.046516,5.11,-42.91,-26.67,1770370256.64211
-0.000488,-0.08662,1.023336,4.34,-42.279999,-26.32,1770370256.650112
0.022936,-0.042456,0.995032,10.08,-42.560001,-24.85,1770370256.658112
0.046116,0.010736,0.970876,11.34,-39.900002,-23.1,1770370256.666126
0.07198,0.07442,0.955748,13.65,-35.07,-19.809999,1770370256.67409
0.094428,0.133956,0.94672,20.16,-28.77,-15.61,1770370256.682102
0.117364,0.187636,0.94306,20.860001,-19.6,-8.82,1770370256.690158
0.132736,0.215208,0.956968,22.190001,-7.7,-1.96,1770370256.698157
0.132248,0.228628,0.967704,22.120001,8.96,4.34,1770370256.706145
0.122976,0.233508,0.9699,20.09,24.43,11.13,1770370256.714135
0.1037,0.233508,0.954772,19.879999,38.849998,16.870001,1770370256.722105
0.066612,0.242048,0.94428,17.43,54.040001,19.040001,1770370256.7301
0.024644,0.282796,0.935984,19.879999,63.209999,23.870001,1770370256.738142
-0.0183,0.345992,0.925004,17.780001,69.580002,21.49,1770370256.746106
-0.06344,0.402844,0.936228,8.89,73.220001,24.01,1770370256.754115
-0.104432,0.426024,0.965996,2.52,74.339996,22.75,1770370256.762106
-0.143228,0.398208,1.020164,-10.36,73.989998,23.309999,1770370256.770227
-0.190808,0.324276,1.046272,-21.209999,70.910004,23.52,1770370256.778144
-0.239852,0.243024,1.038952,-28.91,70.349998,18.549999,1770370256.786089
-0.294264,0.160796,1.001864,-31.360001,69.650002,16.24,1770370256.794114
-0.349408,0.102724,0.960628,-31.709999,71.120003,11.13,1770370256.802229
-0.396256,0.069296,0.913292,-33.32,74.339996,4.97,1770370256.810098
-0.433344,0.03782,0.859612,-32.34,76.650002,0.63,1770370256.818212
-0.450912,0.011224,0.817888,-29.540001,76.93,-6.37,1770370256.826124
-0.470188,-0.018056,0.807884,-27.790001,74.760002,-7.0,1770370256.834095
-0.488,-0.061,0.83936,-22.68,69.370003,-12.04,1770370256.842105
-0.515816,-0.121024,0.904264,-19.809999,64.889999,-11.69,1770370256.850105
-0.55876,-0.187148,0.970632,-15.33,61.25,-11.48,1770370256.858232
-0.604632,-0.23424,1.012844,-9.31,56.07,-11.48,1770370256.866091
-0.649772,-0.254248,1.024556,-5.11,52.150002,-9.03,1770370256.874082
-0.685396,-0.264252,1.012356,1.47,45.709999,-8.61,1770370256.882113
-0.70638,-0.269864,0.994788,3.22,37.939999,-7.49,1770370256.890162
-0.721264,-0.271084,0.993568,4.13,27.790001,-7.35,1770370256.898183
-0.705892,-0.269864,0.9943,4.41,19.18,-7.84,1770370256.906101
-0.671488,-0.28792,0.990396,3.85,9.24,-10.29,1770370256.914203
-0.6283,-0.305976,0.985516,6.65,-0.49,-8.61,1770370256.922097
-0.576328,-0.310368,0.978684,7.35,-7.07,-7.7,1770370256.930102
-0.525332,-0.298656,0.964044,11.34,-15.05,-3.85,1770370256.93811
-0.479704,-0.281576,0.928908,10.15,-16.17,-1.75,1770370256.946125
-0.437736,-0.254492,0.902556,8.4,-17.57,-0.28,1770370256.954151
-0.389424,-0.235216,0.884744,5.74,-13.93,4.06,1770370256.962108
-0.35746,-0.222772,0.870348,2.31,-9.38,8.89,1770370256.970104
-0.344528,-0.21472,0.852536,-1.47,0.35,10.57,1770370256.978109
-0.351116,-0.215696,0.83448,-3.15,10.08,16.450001,1770370256.986157
-0.379176,-0.213988,0.833016,-3.78,21.629999,18.690001,1770370256.99417
-0.427488,-0.204228,0.859368,-1.75,30.52,20.370001,1770370257.002123
-0.490928,-0.18422,0.889624,-1.33,37.380001,22.049999,1770370257.010103
-0.543632,-0.16592,0.906704,0.21,41.23,25.34,1770370257.018181
-0.591944,-0.150792,0.896456,1.33,40.810001,28.559999,1770370257.026097
-0.632448,-0.134932,0.877424,2.31,37.73,31.360001,1770370257.034121
-0.660264,-0.103456,0.86376,5.74,32.41,33.389999,1770370257.042108
-0.687592,-0.060268,0.847656,7.14,29.190001,34.860001,1770370257.050113
-0.704184,-0.025864,0.828136,7.91,22.959999,38.43,1770370257.05821
-0.725412,0.024156,0.808128,7.98,17.99,39.48,1770370257.066907
-0.742736,0.06832,0.813496,6.3,14.84,36.68,1770370257.074257
-0.750544,0.106628,0.820084,8.54,12.74,35.07,1770370257.082125
-0.760792,0.138348,0.83082,8.4,8.96,33.32,1770370257.090107
-0.777384,0.165188,0.838384,12.25,3.08,28.77,1770370257.098242
-0.792024,0.193736,0.83082,10.43,-4.69,24.639999,1770370257.106101
-0.805688,0.216184,0.786656,11.41,-12.39,19.459999,1770370257.114229
-0.80764,0.227164,0.730048,12.11,-21.559999,14.0,1770370257.122107
-0.802272,0.2379,0.675392,11.97,-27.860001,8.89,1770370257.130108
-0.79178,0.256444,0.654652,14.63,-35.209999,1.75,1770370257.138107
-0.783728,0.301828,0.70394,11.69,-36.68,-4.55,1770370257.146105
-0.76372,0.354532,0.781532,4.13,-38.57,-14.0,1770370257.154233
-0.726876,0.391864,0.826184,-5.46,-42.700001,-19.389999,1770370257.162099
-0.675148,0.40992,0.843264,-14.77,-48.580002,-24.5,1770370257.170099
-0.612928,0.410164,0.864248,-22.049999,-58.66,-25.83,1770370257.178104
-0.544852,0.403332,0.879132,-30.59,-69.300003,-26.18,1770370257.186079
-0.473848,0.387228,0.89914,-36.82,-81.410004,-22.68,1770370257.194623
-0.40992,0.36844,0.908412,-43.540001,-92.050003,-22.68,1770370257.202109
-0.34892,0.33184,0.908656,-47.25,-99.959999,-19.040001,1770370257.210103
-0.282552,0.287188,0.887184,-48.02,-105.279999,-14.42,1770370257.218164
-0.225212,0.224968,0.857904,-51.52,-107.029999,-10.57,1770370257.226099
-0.174948,0.149328,0.832528,-48.02,-105.699997,-10.85,1770370257.234096
-0.125172,0.055388,0.842044,-42.07,-98.0,-9.24,1770370257.242127
-0.085644,-0.015128,0.882792,-35.91,-84.07,-9.94,1770370257.2501
-0.049044,-0.080032,0.953064,-29.120001,-64.330002,-10.85,1770370257.258114
-0.019764,-0.13786,1.036024,-21.42,-45.849998,-11.83,1770370257.26609
-0.00732,-0.192272,1.108736,-14.14,-29.120001,-17.57,1770370257.274094
-0.003172,-0.24522,1.159732,-7.42,-14.35,-18.690001,1770370257.28208
-0.013664,-0.296704,1.186328,0.0,-2.03,-21.49,1770370257.290123
-0.031964,-0.345992,1.189744,6.16,5.6,-20.16,1770370257.298248
-0.055876,-0.38796,1.179252,10.22,10.5,-17.360001,1770370257.306179
-0.09516,-0.420168,1.16998,16.309999,14.63,-15.33,1770370257.314263
-0.13664,-0.42578,1.153632,17.219999,16.17,-11.48,1770370257.322101
-0.178852,-0.423828,1.131916,16.52,17.85,-7.0,1770370257.330092
-0.215696,-0.421388,1.098732,13.23,16.799999,-3.85,1770370257.338169
-0.246196,-0.418216,1.066768,13.44,14.84,-7.56,1770370257.3461
-0.267668,-0.412604,1.029924,9.24,13.3,-5.46,1770370257.354093
-0.282064,-0.39772,0.987224,5.32,9.52,-8.12,1770370257.362093
-0.278892,-0.382348,0.960628,1.75,5.74,-11.06,1770370257.370109
-0.26352,-0.367464,0.949892,1.33,2.52,-11.41,1770370257.378101
-0.254004,-0.353068,0.955748,2.52,-1.82,-14.77,1770370257.386089
-0.232044,-0.331108,0.964288,1.47,-3.29,-15.96,1770370257.394179
-0.214964,-0.302316,0.965264,3.99,-6.79,-15.33,1770370257.402107
-0.205448,-0.268644,0.969656,3.01,-8.26,-17.360001,1770370257.410099
-0.190564,-0.233996,0.96746,4.83,-10.36,-18.83,1770370257.41813
-0.175436,-0.19398,0.973316,6.86,-11.06,-17.43,1770370257.426108
-0.15982,-0.14274,0.973072,9.45,-11.69,-21.629999,1770370257.434179
-0.15128,-0.086864,0.969656,13.3,-12.95,-21.700001,1770370257.442098
-0.144936,-0.015128,0.960628,17.08,-15.33,-20.02,1770370257.450118
-0.134932,0.054168,0.95404,20.860001,-13.58,-19.809999,1770370257.45811
-0.125904,0.128344,0.947452,25.620001,-11.34,-14.28,1770370257.466132
-0.119804,0.19032,0.947452,26.110001,-6.16,-12.88,1770370257.474107
-0.117608,0.236192,0.953064,28.35,-1.26,-6.02,1770370257.482099
-0.112972,0.258884,0.961116,26.389999,6.37,0.21,1770370257.490104
-0.114924,0.264496,0.971364,26.67,13.93,4.2,1770370257.498192
-0.117608,0.27328,0.975268,23.66,21.07,10.5,1770370257.506159
-0.132736,0.288164,0.979172,23.17,27.93,13.16,1770370257.514105
-0.159088,0.319152,0.98454,22.68,31.5,21.07,1770370257.522202
-0.179096,0.360876,0.980392,20.440001,31.360001,20.790001,1770370257.53018
-0.19154,0.389424,0.966484,16.73,30.450001,23.66,1770370257.538105
-0.19398,0.381616,0.955748,10.29,26.040001,24.85,1770370257.546096
-0.199592,0.343796,0.958188,4.62,22.190001,22.4,1770370257.554163
-0.195444,0.293288,0.971852,-1.54,18.620001,21.280001,1770370257.562105
-0.201788,0.23546,0.984784,-6.58,18.76,15.68,1770370257.570111
-0.210084,0.192516,0.97966,-11.34,22.610001,14.42,1770370257.578109
-0.227408,0.161772,0.966484,-13.44,28.07,9.52,1770370257.586094
-0.249612,0.151524,0.958188,-19.18,34.93,6.58,1770370257.594088
-0.272304,0.152988,0.956968,-20.02,44.240002,0.98,1770370257.602119
-0.296704,0.1464,0.952088,-24.01,52.990002,-3.99,1770370257.610101
-0.31232,0.111996,0.948184,-24.360001,58.450001,-8.96,1770370257.618129
-0.327448,0.040992,0.953796,-24.639999,62.580002,-12.6,1770370257.626084
-0.342576,-0.051972,0.946232,-19.32,63.77,-12.39,1770370257.634087
-0.379176,-0.127368,0.934764,-10.71,64.050003,-10.43,1770370257.6421
-0.42456,-0.18178,0.921588,-2.38,64.889999,-5.88,1770370257.650202
-0.47214,-0.215452,0.924028,7.56,64.889999,-5.25,1770370257.658111
-0.516304,-0.243268,0.922564,12.95,64.68,-3.85,1770370257.666095
-0.55754,-0.25742,0.928176,17.780001,62.439999,-4.27,1770370257.674211
-0.596092,-0.260836,0.936472,18.690001,63.0,-3.99,1770370257.682093
-0.621956,-0.259372,0.956236,18.969999,61.669998,-5.46,1770370257.690084
-0.632936,-0.265472,0.967704,19.32,56.139999,-6.79,1770370257.698184
-0.636108,-0.27328,0.973072,16.24,51.450001,-4.2,1770370257.706106
-0.630008,-0.281332,0.97234,14.21,43.259998,-4.34,1770370257.714206
-0.620004,-0.294508,0.958676,11.34,34.720001,0.98,1770370257.722119
-0.608048,-0.297436,0.9272,4.41,25.83,4.55,1770370257.730117
-0.595116,-0.294508,0.891332,0.42,17.92,9.94,1770370257.73815
-0.571204,-0.291824,0.860588,-5.25,11.41,15.33,1770370257.746102
-0.549488,-0.293776,0.848632,-10.85,9.73,19.67,1770370257.754146
-0.53924,-0.301096,0.82838,-13.65,10.71,28.209999,1770370257.762148
-0.543876,-0.301584,0.812032,-15.54,15.05,30.73,1770370257.77011
-0.565348,-0.290848,0.805444,-14.35,22.469999,35.419998,1770370257.778121
-0.606584,-0.276208,0.817644,-13.93,27.16,36.540001,1770370257.786093
-0.657092,-0.254004,0.842044,-11.97,34.860001,40.25,1770370257.794081
-0.710284,-0.226676,0.860832,-11.97,37.869999,43.259998,1770370257.802231
-0.7564,-0.200568,0.864248,-8.96,39.060001,46.060001,1770370257.810097
-0.803736,-0.181536,0.853756,-6.02,36.610001,47.599998,1770370257.818428
-0.83936,-0.141764,0.839604,-3.92,31.92,49.209999,1770370257.826178
-0.866688,-0.094916,0.817644,-2.8,27.02,48.299999,1770370257.834125
-0.88328,-0.04758,0.79056,-0.21,17.290001,48.790001,1770370257.842099
-0.89426,-0.006344,0.772504,-0.35,8.82,48.790001,1770370257.850097
-0.892308,0.043188,0.764208,0.98,0.0,46.549999,1770370257.858177
-0.885964,0.09028,0.791536,3.43,-7.14,43.959999,1770370257.866107
-0.87718,0.138592,0.817644,3.01,-13.79,37.240002,1770370257.874084
-0.865712,0.18422,0.845216,1.68,-19.6,33.599998,1770370257.882105
-0.858636,0.218136,0.848876,-1.12,-24.43,29.190001,1770370257.890098
-0.846924,0.233264,0.843996,-2.87,-33.669998,24.08,1770370257.898222
-0.838384,0.248148,0.84424,-5.67,-43.540001,20.860001,1770370257.906132
-0.822524,0.253272,0.845948,-9.73,-53.48,14.35,1770370257.914104
-0.798612,0.24278,0.837896,-11.76,-65.519997,14.42,1770370257.922121
-0.762744,0.213744,0.764696,-13.23,-74.970001,12.95,1770370257.930159
-0.720288,0.171288,0.642452,-5.81,-83.790001,13.72,1770370257.93826
-0.679296,0.162992,0.574376,-0.84,-87.919998,10.92,1770370257.946513
-0.64416,0.20496,0.626348,-1.12,-84.559998,4.41,1770370257.954121
-0.61122,0.278404,0.759572,-9.31,-75.739998,-3.71,1770370257.962099
-0.572424,0.3355,0.867908,-25.200001,-68.879997,-12.32,1770370257.970109
-0.527772,0.345016,0.864248,-38.990002,-65.309998,-19.809999,1770370257.978211
-0.490928,0.327204,0.824476,-44.869999,-70.349998,-20.02,1770370257.98615
-0.463112,0.298656,0.805444,-47.040001,-80.220001,-20.58,1770370257.994092
-0.431148,0.28792,0.8113,-49.84,-91.559998,-19.32,1770370258.002113
-0.384056,0.269864,0.829112,-50.68,-99.260002,-17.01,1770370258.010116
-0.337208,0.246684,0.865224,-52.57,-105.209999,-13.3,1770370258.018141
-0.284016,0.213744,0.898408,-53.130001,-109.199997,-9.24,1770370258.026103
-0.218868,0.164944,0.938912,-53.130001,-108.709999,-5.81,1770370258.034162
-0.16592,0.106872,0.957456,-47.25,-107.519997,0.84,1770370258.042093
-0.116144,0.024156,0.949404,-39.549999,-104.160004,9.03,1770370258.050101
-0.07198,-0.051484,0.944524,-27.65,-101.220001,8.33,1770370258.058292
-0.032452,-0.123952,0.97356,-13.58,-94.779999,7.35,1770370258.066945
0.001464,-0.16348,1.022848,-2.66,-84.980003,6.23,1770370258.074555
0.033428,-0.190564,1.082628,4.41,-70.629997,7.0,1770370258.082126
0.059536,-0.200568,1.128744,8.47,-52.43,8.26,1770370258.090119
0.071492,-0.214964,1.150704,9.17,-33.810001,6.23,1770370258.098159
0.067344,-0.229116,1.14436,6.23,-14.35,8.89,1770370258.106099
0.039528,-0.2562,1.123376,2.8,2.94,6.02,1770370258.114168
-0.000732,-0.279136,1.101172,1.68,16.52,8.82,1770370258.122101
-0.053924,-0.302804,1.070184,-1.26,24.92,4.9,1770370258.130191
-0.114436,-0.32696,1.040416,-3.78,29.4,5.88,1770370258.138193
-0.173484,-0.343552,1.01138,-6.58,29.049999,5.88,1770370258.146132
-0.221308,-0.351848,0.980392,-7.77,24.15,-1.96,1770370258.154127
-0.255712,-0.34892,0.943548,-7.28,17.5,-0.63,1770370258.162163
-0.268644,-0.350628,0.922808,-9.24,9.59,-6.23,1770370258.17017
-0.264008,-0.34892,0.922564,-7.77,-0.56,-7.35,1770370258.178113
-0.237412,-0.343552,0.943548,-6.02,-10.15,-10.92,1770370258.186098
-0.196664,-0.321836,0.965508,-4.27,-20.16,-11.62,1770370258.194859
-0.150548,-0.29768,0.97844,-4.13,-25.83,-14.42,1770370258.20213
-0.096868,-0.279136,0.9882,0.35,-31.5,-14.98,1770370258.210109
-0.04392,-0.253272,0.99796,2.8,-34.580002,-14.28,1770370258.218133
-0.000244,-0.21716,1.008452,7.77,-36.610001,-16.450001,1770370258.226155
0.038308,-0.1769,1.011624,11.2,-33.459999,-15.12,1770370258.234089
0.06832,-0.119804,1.014796,15.19,-29.469999,-12.74,1770370258.242086
0.083448,-0.06344,1.0187,15.19,-23.030001,-9.8,1770370258.250123
0.087108,-0.014152,1.011624,16.66,-11.13,-5.53,1770370258.258178
0.08052,0.032696,0.999668,17.08,0.28,-1.33,1770370258.266102
0.066612,0.082472,0.996008,16.870001,11.62,1.61,1770370258.274097
0.039284,0.106384,1.00772,17.290001,23.59,6.44,1770370258.282097
0.002196,0.121512,1.024556,15.75,35.490002,8.68,1770370258.290094
-0.04026,0.132248,1.039684,14.98,45.57,11.62,1770370258.298264
-0.086864,0.139568,1.049444,11.2,53.27,12.32,1770370258.30608
-0.132736,0.14396,1.045784,11.48,58.099998,16.52,1770370258.314105
-0.176168,0.149328,1.037976,9.1,57.82,12.81,1770370258.322093
-0.208132,0.158356,1.012844,8.68,54.389999,14.98,1770370258.330096
-0.226432,0.180804,0.990152,7.42,47.110001,14.35,1770370258.338102
-0.233752,0.196908,0.976732,9.45,35.98,11.62,1770370258.346096
-0.226188,0.205204,0.947208,8.12,25.83,9.03,1770370258.354097
-0.202032,0.203252,0.931592,10.01,17.360001,6.37,1770370258.362153
-0.170556,0.197152,0.92598,9.87,9.94,0.49,1770370258.370074
-0.130296,0.189588,0.942084,9.66,9.31,-1.19,1770370258.378106
-0.093208,0.180804,0.97234,7.77,10.78,-3.85,1770370258.386093
-0.075396,0.166652,0.999912,4.13,14.07,-4.34,1770370258.394115
-0.0671,0.155916,1.005524,-0.77,21.139999,-4.9,1770370258.402133
-0.074664,0.151768,0.993568,-6.09,30.940001,-5.11,1770370258.410112
-0.085156,0.153232,0.971608,-7.42,40.669998,-5.81,1770370258.418189
-0.10004,0.1647,0.967948,-11.76,51.380001,-8.05,1770370258.426116
-0.121024,0.16348,0.974292,-15.33,63.490002,-7.0,1770370258.434086
-0.1525,0.125904,0.99674,-15.33,74.199997,-6.3,1770370258.442106
-0.192028,0.051484,0.995764,-17.01,85.190002,-7.35,1770370258.450119
-0.238388,-0.018788,0.967948,-11.69,95.129997,-4.34,1770370258.458113
-0.28792,-0.075884,0.934764,-8.89,100.379997,-5.67,1770370258.466191
-0.33916,-0.121268,0.929884,-1.33,106.120003,-1.26,1770370258.474096
-0.39894,-0.149816,0.945744,3.22,107.309998,1.82,1770370258.482098
-0.465796,-0.163724,0.974048,7.14,107.800003,6.16,1770370258.49012
-0.512644,-0.17324,0.986492,7.91,105.559998,10.57,1770370258.498148
-0.564372,-0.176412,0.981612,10.22,101.290001,13.3,1770370258.506107
-0.60756,-0.194712,0.969656,10.08,97.440002,14.98,1770370258.514107
-0.640256,-0.20252,0.940376,13.23,93.029999,19.67,1770370258.522127
-0.666608,-0.212768,0.913048,13.23,85.470001,19.110001,1770370258.530102
-0.696376,-0.218136,0.90036,12.46,77.139999,22.4,1770370258.53811
-0.715652,-0.221552,0.881816,10.43,69.440002,20.370001,1770370258.546092
-0.732244,-0.230336,0.854,5.46,61.599998,22.82,1770370258.554201
-0.74542,-0.246928,0.82228,2.1,56.91,22.049999,1770370258.562099
-0.75152,-0.255468,0.781532,-4.55,49.279999,18.549999,1770370258.570116
-0.751276,-0.267424,0.76006,-7.42,42.279999,18.76,1770370258.57825
-0.742492,-0.283284,0.750056,-14.42,37.939999,16.799999,1770370258.586116
-0.737612,-0.294264,0.749568,-16.799999,32.970001,14.07,1770370258.594098
-0.743712,-0.2806,0.758596,-14.91,29.82,15.26,1770370258.602111
-0.7564,-0.266936,0.77104,-15.33,26.950001,16.799999,1770370258.610188
-0.782264,-0.253028,0.784216,-13.02,24.360001,17.15,1770370258.61813
-0.805444,-0.2379,0.797148,-11.13,20.51,17.01,1770370258.626099
-0.825452,-0.233264,0.806908,-12.53,17.5,20.16,1770370258.634113
-0.843264,-0.218868,0.81374,-8.19,12.6,20.23,1770370258.642231
-0.852292,-0.195688,0.803248,-7.21,7.28,21.98,1770370258.650184
-0.854244,-0.159576,0.796416,-2.45,-0.91,23.799999,1770370258.658211
-0.84424,-0.121024,0.7869,-0.07,-7.28,23.17,1770370258.666125
-0.826672,-0.0793,0.787144,0.0,-11.83,22.610001,1770370258.674085
-0.800564,-0.032696,0.7869,4.06,-17.01,19.950001,1770370258.682104
-0.770308,0.001464,0.792512,3.64,-23.799999,22.190001,1770370258.690158
-0.74176,0.028304,0.802028,7.0,-24.15,21.07,1770370258.698444
-0.718336,0.052948,0.820816,6.79,-26.040001,20.58,1770370258.706085
-0.703696,0.084668,0.853756,5.25,-24.57,20.370001,1770370258.714102
-0.699548,0.11102,0.88938,4.34,-25.34,16.799999,1770370258.722118
-0.704184,0.123464,0.900848,0.63,-26.6,15.54,1770370258.730098
-0.708088,0.112728,0.86376,0.63,-29.610001,13.44,1770370258.738213
-0.706624,0.092964,0.813008,1.05,-34.790001,14.98,1770370258.746091
-0.693936,0.077592,0.77592,0.35,-36.330002,11.83,1770370258.754102
-0.667584,0.067832,0.758596,1.89,-41.02,13.51,1770370258.762098
-0.6405,0.061,0.741272,-0.21,-43.75,15.19,1770370258.770117
-0.61,0.051728,0.729316,-0.77,-44.59,12.74,1770370258.778218
-0.59536,0.041236,0.705404,1.89,-44.66,11.83,1770370258.786094
-0.59292,0.041236,0.676856,2.38,-43.330002,7.56,1770370258.794098
-0.598776,0.065148,0.684908,5.88,-43.119999,0.84,1770370258.802146
-0.612196,0.105652,0.738588,3.22,-38.57,-4.41,1770370258.810288
-0.62708,0.144448,0.818376,-0.14,-33.669998,-9.94,1770370258.818127
-0.621956,0.160552,0.893528,-5.25,-33.459999,-14.84,1770370258.826115
-0.615124,0.15128,0.954528,-8.89,-34.790001,-16.450001,1770370258.834089
-0.60024,0.122732,1.001132,-6.09,-45.009998,-18.690001,1770370258.84212
-0.564372,0.086132,1.019188,-5.81,-55.580002,-19.6,1770370258.850178
-0.518988,0.055632,1.030168,-2.03,-66.989998,-16.309999,1770370258.858106
-0.467016,0.034404,1.037976,-1.61,-76.790001,-15.96,1770370258.866107
-0.4026,0.013908,1.048468,-0.98,-82.110001,-13.86,1770370258.874133
-0.340136,-0.00854,1.068964,0.91,-83.720001,-12.18,1770370258.882197
-0.27694,-0.023424,1.094584,-2.24,-79.519997,-10.36,1770370258.890101
-0.2196,-0.050264,1.11264,-1.19,-71.75,-7.35,1770370258.898118
-0.17324,-0.07076,1.11142,-1.12,-61.32,-7.21,1770370258.906094
-0.142008,-0.089792,1.086532,-2.87,-50.189999,-5.11,1770370258.914175
-0.122732,-0.101992,1.051152,-2.1,-37.240002,-3.29,1770370258.922364
-0.114924,-0.124684,1.01626,-2.59,-25.48,-2.73,1770370258.930182
-0.111996,-0.14396,0.978196,0.98,-15.12,-2.38,1770370258.938111
-0.116876,-0.166652,0.931348,4.2,-6.37,-3.29,1770370258.946603
-0.124928,-0.172508,0.889624,7.42,0.7,-0.63,1770370258.954112
-0.133712,-0.189588,0.872788,14.42,3.43,-1.54,1770370258.96211
-0.145424,-0.179584,0.883036,17.01,7.49,-3.29,1770370258.9701
-0.160552,-0.147132,0.90768,22.190001,12.11,-4.06,1770370258.978196
-0.17934,-0.13786,0.938424,25.200001,16.24,-6.65,1770370258.986133
-0.193736,-0.105896,0.963556,31.01,23.52,-10.85,1770370258.994128
-0.198128,-0.079544,0.981612,38.220001,25.76,-13.79,1770370259.002084
-0.211304,-0.060268,1.005768,44.869999,28.700001,-19.110001,1770370259.010223
-0.233264,-0.072224,1.003572,54.740002,30.450001,-16.450001,1770370259.018205
-0.260348,-0.06588,0.943792,48.23,25.059999,-21.139999,1770370259.026165
-0.272792,-0.045628,0.862784,36.889999,16.379999,-26.32,1770370259.03416
-0.25498,-0.016836,0.778848,21.209999,5.04,-32.130001,1770370259.042114
-0.194712,0.020008,0.732976,5.46,-4.48,-36.119999,1770370259.050102
-0.123952,0.052216,0.755424,3.57,-11.69,-37.52,1770370259.058258
-0.05978,0.088328,0.812764,4.62,-13.72,-39.200001,1770370259.066386
-0.008784,0.10004,0.872544,7.21,-11.13,-40.110001,1770370259.074325
0.022204,0.083204,0.919392,3.29,-3.29,-35.279999,1770370259.082216
0.043188,0.079544,0.946476,-7.98,8.26,-27.860001,1770370259.09012
0.052216,0.092232,0.96136,-17.15,21.280001,-21.49,1770370259.098117
0.055144,0.121756,0.993324,-18.200001,35.490002,-13.09,1770370259.106081
0.034892,0.142252,1.062864,-14.21,50.330002,-7.49,1770370259.114117
-0.007808,0.148596,1.119716,-5.25,64.610001,1.19,1770370259.122323
-0.077104,0.169336,1.158024,-1.33,78.540001,3.78,1770370259.130119
-0.147376,0.201788,1.185352,2.24,89.669998,11.76,1770370259.138111
-0.21228,0.214232,1.180716,7.56,96.739998,14.98,1770370259.146103
-0.27816,0.199592,1.11874,8.54,93.099998,23.309999,1770370259.154122
-0.355264,0.16592,1.024312,13.58,88.900002,30.450001,1770370259.162104
-0.426268,0.156648,0.952088,12.11,84.209999,34.860001,1770370259.170101
-0.487024,0.162016,0.937692,11.9,79.800003,31.85,1770370259.178111
-0.52948,0.171776,0.96746,6.79,76.089996,30.66,1770370259.186102
-0.57828,0.165676,0.997716,-1.96,74.550003,23.309999,1770370259.194105
-0.63684,0.158112,1.021384,-8.89,73.360001,16.940001,1770370259.202135
-0.69052,0.136396,1.018212,-17.43,71.330002,10.92,1770370259.210113
-0.74542,0.099552,1.003084,-27.860001,66.919998,6.58,1770370259.218102
-0.79056,0.066856,0.98698,-32.34,58.59,3.01,1770370259.226095
-0.826428,0.048556,0.975268,-29.889999,47.740002,-4.2,1770370259.234215
-0.85644,0.0366,0.968192,-21.42,37.59,-5.74,1770370259.242089
-0.878644,0.050996,0.9638,-14.14,24.290001,-9.03,1770370259.250094
-0.88206,0.061732,0.96014,-7.84,8.26,-11.13,1770370259.2581
-0.8479,0.075884,0.925248,-6.3,-9.38,-13.16,1770370259.266091
-0.795928,0.090036,0.87596,-9.59,-26.040001,-11.62,1770370259.274095
-0.725412,0.106872,0.829112,-9.87,-44.59,-12.46,1770370259.282119
-0.644404,0.110776,0.796172,-16.24,-57.610001,-9.8,1770370259.290188
-0.556564,0.118584,0.779824,-17.639999,-67.620003,-8.12,1770370259.298098
-0.473116,0.123952,0.780312,-21.0,-73.57,-5.74,1770370259.306074
-0.399428,0.127612,0.801784,-22.889999,-72.730003,-4.9,1770370259.314131
-0.337452,0.13298,0.81984,-22.190001,-69.300003,-4.2,1770370259.322175
-0.289872,0.135664,0.83692,-27.23,-64.959999,-3.22,1770370259.330118
-0.251076,0.134932,0.841068,-28.0,-58.240002,-1.61,1770370259.338105
-0.21594,0.13176,0.827892,-28.700001,-50.959999,-4.41,1770370259.346091
-0.183244,0.115168,0.804224,-27.440001,-42.77,-6.37,1770370259.354098
-0.15616,0.087596,0.772748,-20.790001,-36.119999,-9.03,1770370259.362177
-0.135664,0.070028,0.755668,-16.1,-29.540001,-12.32,1770370259.370107
-0.126148,0.062952,0.753472,-9.03,-20.440001,-15.4,1770370259.378101
-0.122244,0.059048,0.759328,-6.02,-12.88,-19.040001,1770370259.38609
-0.120536,0.057828,0.762744,-5.46,-4.83,-24.85,1770370259.39416
-0.121512,0.054412,0.772992,-5.46,0.63,-29.469999,1770370259.402082
-0.127368,0.04026,0.799588,-11.9,8.96,-31.85,1770370259.410166
-0.1342,0.000732,0.834236,-16.24,16.030001,-33.950001,1770370259.418115
-0.1464,-0.034648,0.883768,-19.879999,22.26,-34.369999,1770370259.426112
-0.177388,-0.06344,0.939156,-21.98,29.68,-34.509998,1770370259.434115
-0.205692,-0.09516,0.975024,-18.76,37.52,-33.740002,1770370259.442103
-0.252052,-0.130784,0.996008,-14.21,46.27,-30.030001,1770370259.45042
-0.2989,-0.167384,1.000888,-7.98,54.740002,-27.23,1770370259.4582
-0.347944,-0.19764,0.998692,2.03,62.369999,-24.639999,1770370259.466128
-0.402844,-0.194468,1.005768,13.23,67.830002,-24.219999,1770370259.474101
-0.467504,-0.169336,1.025532,24.219999,72.379997,-21.700001,1770370259.482098
-0.525332,-0.12688,1.048468,31.99,76.089996,-22.82,1770370259.490097
-0.588772,-0.072468,1.06872,38.080002,77.349998,-21.07,1770370259.49819
-0.647576,-0.021472,1.086288,42.209999,77.980003,-20.93,1770370259.506085
-0.700524,0.01708,1.07604,42.77,76.790001,-19.74,1770370259.514103
-0.754204,0.047824,1.04432,47.110001,73.57,-17.99,1770370259.522132
-0.79666,0.071736,0.985028,46.619999,70.209999,-18.690001,1770370259.530267
-0.838384,0.09638,0.908168,46.759998,68.25,-16.59,1770370259.538162
-0.884256,0.129564,0.825208,46.970001,63.490002,-17.57,1770370259.546105
-0.923784,0.170312,0.769088,45.220001,57.470001,-19.110001,1770370259.5541
-0.955504,0.205204,0.74786,42.209999,50.470001,-23.73,1770370259.562166
-0.97966,0.227164,0.715652,36.189999,46.130001,-24.639999,1770370259.570095
-1.002596,0.224724,0.65148,35.07,41.650002,-20.440001,1770370259.578106
-1.02968,0.2196,0.580232,33.810001,40.110001,-19.6,1770370259.586096
-1.078968,0.22204,0.529968,29.959999,38.150002,-15.26,1770370259.59416
-1.131184,0.235216,0.50142,25.76,33.599998,-10.85,1770370259.602095
-1.17852,0.252052,0.494344,14.77,27.719999,-10.36,1770370259.610107
-1.220488,0.268888,0.514596,6.79,18.059999,-8.26,1770370259.618115
-1.236104,0.274988,0.53802,-5.88,3.64,-6.65,1770370259.626129
-1.221952,0.251564,0.525088,-12.11,-15.33,-2.52,1770370259.634129
-1.182668,0.21594,0.517036,-9.31,-37.310001,1.4,1770370259.642099
-1.126792,0.185684,0.548512,-3.57,-60.549999,4.9,1770370259.650474
-1.062376,0.179096,0.626348,3.22,-75.879997,1.05,1770370259.658112
-0.987468,0.207644,0.74664,2.31,-89.110001,-1.61,1770370259.666099
-0.915488,0.251808,0.874496,0.63,-100.379997,-7.91,1770370259.6741
-0.846924,0.293776,0.965508,-3.57,-110.32,-11.41,1770370259.682119
-0.788608,0.308416,0.98454,-4.55,-118.370003,-15.96,1770370259.690111
-0.724192,0.306952,0.964532,-1.33,-127.959999,-16.1,1770370259.698519
-0.646844,0.281332,0.919636,5.46,-140.910004,-18.200001,1770370259.706203
-0.553148,0.250344,0.875228,12.53,-154.139999,-21.07,1770370259.714096
-0.452376,0.213256,0.833992,23.450001,-171.429993,-21.629999,1770370259.722104
-0.357948,0.156892,0.814472,31.57,-186.339996,-26.530001,1770370259.730101
-0.2684,0.125172,0.833504,39.34,-193.410004,-29.4,1770370259.738106
-0.174704,0.110044,0.883768,49.630001,-194.669998,-35.630001,1770370259.746095
-0.087352,0.11224,0.94428,52.849998,-186.619995,-43.610001,1770370259.754171
-0.010492,0.121268,1.010648,56.419998,-172.550003,-55.580002,1770370259.762103
0.059292,0.13786,1.059692,52.990002,-153.929993,-66.360001,1770370259.77018
0.123464,0.153476,1.0736,45.220001,-132.580002,-79.309998,1770370259.778185
0.158356,0.1586,1.038952,35.07,-110.25,-89.18,1770370259.786105
0.16592,0.127612,0.986736,23.870001,-85.82,-92.68,1770370259.794096
0.165676,0.054412,0.942084,14.28,-63.419998,-93.870003,1770370259.802079
0.170068,-0.033916,0.929152,11.97,-45.849998,-93.870003,1770370259.810102
0.153232,-0.085644,0.930372,14.56,-33.880001,-94.57,1770370259.818165
0.131028,-0.0915,0.938668,14.28,-24.01,-94.220001,1770370259.826113
0.108092,-0.091256,0.945744,15.19,-14.56,-90.650002,1770370259.834087
0.082716,-0.1037,0.956724,14.63,-8.05,-86.379997,1770370259.842107
0.06344,-0.116388,0.976,13.79,-0.28,-78.400002,1770370259.850288
0.055388,-0.13542,0.999424,10.57,5.88,-75.389999,1770370259.858127
0.046116,-0.149816,1.033584,7.63,9.59,-69.790001,1770370259.866108
0.03538,-0.15738,1.06384,6.23,13.37,-61.880001,1770370259.87413
0.025864,-0.168848,1.081896,7.56,14.77,-59.43,1770370259.882117
0.020984,-0.168848,1.098244,9.03,14.91,-49.98,1770370259.8901
0.024156,-0.146644,1.115324,13.58,15.68,-49.0,1770370259.898108
0.03172,-0.113216,1.131672,16.52,15.05,-40.599998,1770370259.906084
0.040504,-0.056852,1.145092,19.110001,16.450001,-38.919998,1770370259.914095
0.047092,0.021228,1.15656,17.43,20.51,-31.01,1770370259.922188
0.055632,0.106872,1.149728,13.44,23.59,-27.51,1770370259.93012
0.056852,0.180804,1.108736,8.47,29.120001,-20.51,1770370259.938108
0.056364,0.238144,1.051152,5.25,35.84,-9.03,1770370259.946096
0.051728,0.2745,0.995032,0.63,44.240002,-3.85,1770370259.95423
0.040748,0.289628,0.951844,-3.22,56.490002,8.26,1770370259.962111
0.012932,0.275476,0.908412,-7.0,68.739998,17.360001,1770370259.970105
-0.014396,0.254736,0.877912,-6.86,81.760002,25.34,1770370259.978107
-0.055388,0.241316,0.847412,-9.52,92.120003,31.57,1770370259.986128
-0.107848,0.24644,0.839604,-11.9,104.230003,35.560001,1770370259.9941
-0.159088,0.27206,0.861808,-13.58,113.050003,35.560001,1770370260.002138
-0.206912,0.276696,0.876936,-19.74,121.099998,34.439999,1770370260.010108
-0.260592,0.237168,0.854,-23.1,124.599998,36.119999,1770370260.018192
-0.323788,0.170556,0.818376,-20.23,128.940002,34.93,1770370260.026302
-0.39406,0.117364,0.793244,-16.450001,132.440002,33.18,1770370260.034093
-0.484828,0.094428,0.792024,-6.79,133.139999,28.139999,1770370260.042209
-0.582916,0.105896,0.813984,-4.06,139.160004,22.190001,1770370260.050093
-0.682468,0.126636,0.824964,-3.15,143.429993,13.16,1770370260.058133
-0.785192,0.121268,0.825208,-7.21,143.289993,4.55,1770370260.066597
-0.871568,0.085156,0.801296,-9.24,137.270004,-6.02,1770370260.074414
-0.953552,0.030256,0.788364,-9.31,125.860001,-13.51,1770370260.082134
-1.030412,-0.024888,0.816424,-10.99,108.010002,-20.23,1770370260.090212
-1.083848,-0.072224,0.86864,-4.9,83.580002,-21.49,1770370260.098126
-1.120204,-0.098088,0.88206,-0.42,58.52,-18.76,1770370260.106092
-1.140212,-0.103944,0.853512,8.75,29.75,-15.4,1770370260.114113
-1.136308,-0.075152,0.817644,13.44,2.31,-10.5,1770370260.12211
-1.116056,-0.023912,0.8052,15.75,-20.719999,-10.15,1770370260.130158
-1.075552,0.040992,0.79666,17.57,-39.549999,-10.5,1770370260.138179
-1.02114,0.103212,0.786656,13.65,-52.849998,-10.5,1770370260.14613
-0.955016,0.144692,0.789828,8.19,-58.66,-13.3,1770370260.154118
-0.88816,0.15128,0.795684,4.2,-59.290001,-8.82,1770370260.162177
-0.823256,0.124684,0.781532,-2.31,-53.549999,-6.58,1770370260.170108
-0.784948,0.064416,0.744688,-7.77,-45.009998,3.36,1770370260.178147
-0.766404,0.000976,0.720288,-16.24,-35.349998,9.17,1770370260.186112
-0.760304,-0.06222,0.71736,-21.42,-25.129999,14.21,1770370260.19423
-0.780068,-0.1159,0.73566,-28.77,-15.96,20.370001,1770370260.202227
-0.806908,-0.166896,0.743468,-32.900002,-11.55,20.58,1770370260.210107
-0.83448,-0.213256,0.731024,-35.77,-9.8,26.040001,1770370260.218105
-0.858148,-0.248392,0.709308,-36.75,-12.6,22.959999,1770370260.226121
-0.878644,-0.260836,0.687348,-32.200001,-17.219999,24.639999,1770370260.234236
-0.893284,-0.253516,0.68198,-24.99,-23.379999,22.82,1770370260.242077
-0.892064,-0.214232,0.694668,-18.129999,-32.48,18.549999,1770370260.250095
-0.873276,-0.156404,0.720532,-10.92,-42.700001,16.799999,1770370260.258108
-0.844728,-0.104676,0.7198,-4.55,-51.310001,13.65,1770370260.266092
-0.8174,-0.059536,0.704184,0.91,-63.77,13.09,1770370260.274223
-0.779824,-0.009272,0.696864,9.87,-75.809998,9.03,1770370260.282109
-0.735172,0.02562,0.668804,13.65,-92.82,7.35,1770370260.290094
-0.675392,0.04514,0.61366,22.120001,-110.669998,2.38,1770370260.298106
-0.610488,0.051728,0.551196,31.780001,-125.720001,-3.99,1770370260.306076
-0.533384,0.063928,0.49166,44.240002,-136.5,-9.73,1770370260.314193
-0.454572,0.0976,0.474092,55.509998,-142.029999,-17.99,1770370260.322129
-0.378688,0.155184,0.515084,62.509998,-142.940002,-27.860001,1770370260.330118
-0.28792,0.210084,0.601704,65.239998,-139.789993,-33.740002,1770370260.338097
-0.1952,0.269132,0.710284,64.120003,-134.259995,-38.57,1770370260.34608
-0.100528,0.33184,0.833748,59.779999,-125.720001,-43.049999,1770370260.354156
-0.021716,0.387716,0.966972,49.419998,-112.279999,-45.639999,1770370260.362102
0.05368,0.44408,1.093608,35.77,-97.650002,-50.75,1770370260.370081
0.121512,0.479948,1.152412,17.01,-82.879997,-52.360001,1770370260.378109
0.155184,0.469456,1.126792,-0.42,-70.209999,-48.09,1770370260.386102
0.149816,0.38796,1.074088,-14.7,-54.669998,-46.549999,1770370260.39414
0.107604,0.25498,1.014796,-21.07,-37.099998,-39.970001,1770370260.402099
0.053436,0.119804,0.988688,-20.860001,-16.030001,-34.860001,1770370260.4101
-0.00244,0.003416,1.0065,-14.14,5.88,-35.279999,1770370260.418108
-0.06344,-0.075396,1.05774,-6.51,23.309999,-41.09,1770370260.426147
-0.123708,-0.10858,1.10898,0.21,35.630001,-48.09,1770370260.434218
-0.165432,-0.13054,1.148264,9.66,44.450001,-49.91,1770370260.442101
-0.215208,-0.1586,1.187304,20.299999,49.91,-50.68,1770370260.45039
-0.25986,-0.172264,1.232932,27.860001,47.740002,-50.889999,1770370260.458124
-0.283772,-0.159332,1.284904,31.219999,41.720001,-51.380001,1770370260.466101
-0.296704,-0.122976,1.34444,30.24,33.25,-49.07,1770370260.474101
-0.303292,-0.076128,1.390312,26.459999,20.860001,-44.939999,1770370260.482295
-0.290116,-0.05368,1.397388,15.47,8.54,-39.549999,1770370260.490103
-0.272792,-0.040992,1.382504,7.0,-5.18,-35.279999,1770370260.498112
-0.244732,-0.04026,1.335412,-1.33,-16.59,-31.08,1770370260.506086
-0.209596,-0.047092,1.25904,-9.87,-25.129999,-28.0,1770370260.514127
-0.16592,-0.028548,1.16144,-16.030001,-31.219999,-23.379999,1770370260.522239
-0.118584,-0.012688,1.070184,-17.639999,-32.549999,-17.57,1770370260.530123
-0.078568,0.005612,1.025044,-19.25,-30.450001,-15.68,1770370260.538119
-0.037088,0.049288,1.008208,-23.309999,-23.030001,-9.38,1770370260.54612
-0.004392,0.091256,0.993812,-25.200001,-11.48,-6.37,1770370260.55414
0.021472,0.112484,0.967216,-25.969999,1.61,2.66,1770370260.562104
0.039284,0.133468,0.915488,-26.879999,16.379999,15.75,1770370260.5701
0.034404,0.149572,0.841556,-24.219999,29.610001,26.74,1770370260.578109
0.005856,0.162504,0.749568,-22.120001,41.720001,37.310001,1770370260.586229
-0.030988,0.1769,0.629276,-17.01,50.330002,44.73,1770370260.594101
-0.066612,0.17446,0.531432,-11.48,58.029999,49.0,1770370260.602097
-0.089792,0.14762,0.477508,-4.9,64.82,51.799999,1770370260.610106
-0.11834,0.096624,0.484828,4.55,72.379997,54.32,1770370260.618198
-0.142496,0.06466,0.561444,11.55,84.0,57.540001,1770370260.626136
-0.179096,0.092476,0.710772,20.09,97.230003,56.700001,1770370260.634107
-0.252784,0.170556,0.881328,16.66,108.290001,54.740002,1770370260.642138
-0.358436,0.251076,1.015284,6.44,115.080002,50.82,1770370260.650102
-0.486536,0.273524,1.053348,-8.68,119.07,44.73,1770370260.658139
-0.598776,0.219356,1.01138,-22.33,117.18,36.68,1770370260.666096
-0.720288,0.125904,0.968924,-31.360001,110.949997,26.32,1770370260.674101
-0.846436,0.016592,0.962824,-33.599998,101.639999,18.48,1770370260.682159
-0.970632,-0.087352,0.96136,-28.49,93.099998,4.69,1770370260.690117
-1.059936,-0.164456,0.919392,-19.809999,80.080002,-1.61,1770370260.69811
-1.115812,-0.197152,0.852536,-10.43,60.41,-11.97,1770370260.706113
-1.122888,-0.175436,0.8235,-5.04,36.330002,-18.34,1770370260.714131
-1.098,-0.124196,0.833016,-3.64,8.19,-22.26,1770370260.722142
-1.036512,-0.054656,0.865468,-8.12,-16.450001,-20.93,1770370260.73019
-0.964044,-0.009028,0.915244,-16.309999,-35.560001,-21.559999,1770370260.738121
-0.88084,-0.008052,0.950624,-21.42,-45.779999,-18.549999,1770370260.746123
-0.797148,-0.02684,0.953552,-24.99,-47.529999,-12.18,1770370260.754094
-0.737124,-0.056608,0.9089,-24.92,-42.700001,-3.43,1770370260.762218
-0.710284,-0.078812,0.859368,-23.030001,-34.09,6.16,1770370260.770095
-0.704672,-0.082716,0.81618,-19.950001,-22.26,11.55,1770370260.778111
-0.72102,-0.082472,0.783484,-16.66,-10.85,15.47,1770370260.7861
-0.737124,-0.066368,0.768844,-14.56,-0.49,12.74,1770370260.794118
-0.76128,-0.044408,0.770064,-10.01,5.6,16.24,1770370260.802103
-0.78568,-0.020252,0.778604,-12.11,9.03,14.91,1770370260.810105
-0.796172,-0.01464,0.79422,-10.36,8.61,12.95,1770370260.818105
-0.813008,-0.025376,0.767624,-12.39,1.96,11.41,1770370260.826131
-0.80398,-0.054412,0.726876,-8.68,-6.58,9.38,1770370260.834119
-0.780556,-0.079544,0.695156,-2.1,-18.969999,9.17,1770370260.842123
-0.744688,-0.099308,0.682712,4.41,-32.970001,6.72,1770370260.850086
-0.695888,-0.113216,0.654164,16.309999,-47.459999,9.24,1770370260.858108
-0.63928,-0.118096,0.619516,25.76,-63.98,9.52,1770370260.866102
-0.581696,-0.118584,0.590724,35.279999,-80.290001,9.45,1770370260.874114
-0.52216,-0.132248,0.582672,47.389999,-95.199997,7.91,1770370260.882208
-0.473116,-0.12932,0.602924,56.630001,-104.93,3.85,1770370260.890166
-0.422364,-0.107848,0.656848,63.279999,-109.410004,-0.77,1770370260.898118
-0.364536,-0.051484,0.746884,65.870003,-107.730003,-5.88,1770370260.906083
-0.2989,0.040992,0.864248,63.560001,-97.93,-16.66,1770370260.914102
-0.234484,0.132248,0.996252,54.32,-84.980003,-22.120001,1770370260.922172
-0.172996,0.20984,1.107516,36.68,-67.620003,-28.42,1770370260.930163
-0.119072,0.271572,1.158756,22.33,-52.57,-27.65,1770370260.938127
-0.08052,0.29768,1.16998,8.75,-43.330002,-31.5,1770370260.946152
-0.038308,0.318908,1.152656,-4.34,-38.43,-26.389999,1770370260.954139
-0.027572,0.31598,1.122888,-12.74,-37.66,-25.620001,1770370260.962226
-0.036112,0.314516,1.082628,-25.549999,-36.68,-19.67,1770370260.9701
-0.076616,0.305244,1.03578,-32.200001,-33.459999,-18.200001,1770370260.978113
-0.122488,0.272792,0.986492,-35.139999,-23.24,-19.32,1770370260.986102
-0.175436,0.248148,0.950136,-38.57,-8.47,-20.719999,1770370260.994157
-0.2318,0.22936,0.938912,-34.790001,8.4,-21.700001,1770370261.002104
-0.27206,0.211304,0.94794,-33.18,21.84,-19.040001,1770370261.010107
-0.298168,0.200324,0.953064,-30.73,24.15,-23.379999,1770370261.018113
-0.31598,0.171044,0.959652,-24.57,20.09,-25.34,1770370261.026109
-0.3294,0.137372,0.974048,-19.879999,9.38,-29.26,1770370261.034124
-0.323788,0.098088,1.000156,-14.21,-2.38,-27.65,1770370261.042104
-0.30256,0.069784,1.014552,-11.62,-15.89,-26.809999,1770370261.050102
-0.27572,0.047336,1.027728,-5.46,-24.780001,-22.049999,1770370261.058252
-0.228872,0.040992,1.049932,-3.57,-31.08,-19.950001,1770370261.066456
-0.17324,0.057096,1.079456,-5.04,-33.25,-17.780001,1770370261.07433
-0.113948,0.05856,1.119716,-4.76,-34.23,-12.25,1770370261.082139
-0.054412,0.04636,1.139968,-11.97,-33.529999,-9.45,1770370261.090195
-0.004148,0.019764,1.100928,-14.14,-33.810001,-3.43,1770370261.09812
0.04636,-0.029036,1.054568,-19.530001,-29.82,4.34,1770370261.106167
0.092964,-0.081984,1.018456,-18.129999,-23.59,12.74,1770370261.114108
0.12932,-0.122732,0.968192,-15.68,-14.49,23.870001,1770370261.122186
0.155916,-0.16348,0.915244,-10.22,-1.68,33.529999,1770370261.130464
0.166652,-0.18422,0.862784,-1.33,14.28,42.84,1770370261.138235
0.154696,-0.207888,0.820084,12.53,34.509998,51.799999,1770370261.146103
0.119804,-0.201544,0.80886,26.110001,56.490002,61.110001,1770370261.154145
0.05856,-0.17202,0.874984,34.650002,81.900002,69.790001,1770370261.162112
-0.028304,-0.116876,1.001132,36.119999,104.230003,74.970001,1770370261.170103
-0.149816,-0.045872,1.140212,28.35,122.080002,75.389999,1770370261.178111
-0.28548,0.036112,1.238788,14.21,134.820007,72.660004,1770370261.186106
-0.459208,0.06954,1.25294,-5.88,139.929993,65.169998,1770370261.194182
-0.63074,0.051484,1.202432,-18.76,141.190002,57.75,1770370261.20221
-0.816912,-0.005368,1.116056,-27.790001,140.490005,44.240002,1770370261.21033
-0.976,-0.065636,1.016504,-29.68,139.160004,28.35,1770370261.218105
-1.099708,-0.100284,0.942328,-26.809999,128.309998,10.08,1770370261.226094
-1.157048,-0.081008,0.901092,-27.65,110.739998,-7.56,1770370261.234121
-1.156804,-0.023912,0.881084,-25.9,83.019997,-19.110001,1770370261.242156
-1.10044,0.059048,0.863028,-27.93,47.669998,-26.18,1770370261.250091
-1.0004,0.169336,0.845948,-28.77,8.19,-30.24,1770370261.258102
-0.8845,0.254004,0.82228,-31.219999,-24.43,-34.860001,1770370261.266105
-0.745908,0.299632,0.775432,-33.880001,-49.209999,-35.77,1770370261.274097
-0.614392,0.313784,0.72102,-29.469999,-67.059998,-34.650002,1770370261.282167
-0.501176,0.319152,0.671976,-23.940001,-73.779999,-31.92,1770370261.290106
-0.419924,0.3355,0.606096,-14.21,-76.860001,-29.889999,1770370261.298102
-0.366732,0.362096,0.53924,-6.65,-71.959999,-27.440001,1770370261.306075
-0.333792,0.389912,0.506788,-2.59,-62.299999,-25.34,1770370261.314209
-0.325496,0.402112,0.507032,-1.12,-46.34,-22.469999,1770370261.322108
-0.329156,0.377224,0.52704,-3.57,-24.219999,-14.84,1770370261.330117
-0.36112,0.323056,0.568276,-7.14,0.49,-5.67,1770370261.338122
-0.423096,0.250344,0.61366,-11.34,22.540001,0.98,1770370261.346099
-0.492636,0.14152,0.650504,-15.47,38.919998,9.31,1770370261.354185
-0.569252,-0.0061,0.629764,-12.11,46.689999,16.870001,1770370261.362082
-0.661972,-0.191052,0.562664,-1.33,42.91,22.610001,1770370261.370086
-0.758352,-0.378932,0.519232,18.9,28.42,29.68,1770370261.378104
-0.83204,-0.530212,0.5124,41.439999,9.17,34.09,1770370261.386099
-0.907192,-0.618784,0.562908,65.309998,-10.01,37.73,1770370261.394102
-0.97234,-0.655872,0.703452,83.230003,-29.889999,31.85,1770370261.402222
-1.032852,-0.667828,0.918172,88.339996,-45.990002,20.16,1770370261.410164
-1.053592,-0.649528,1.144116,80.989998,-57.119999,-2.17,1770370261.418113
-1.024556,-0.637572,1.315648,70.559998,-62.439999,-12.74,1770370261.426095
-0.91744,-0.625128,1.414956,62.720001,-72.730003,-24.5,1770370261.434226
-0.758596,-0.572912,1.462536,60.41,-94.43,-26.459999,1770370261.442105
-0.559492,-0.459208,1.525976,57.82,-122.5,-24.5,1770370261.450103
-0.374784,-0.29158,1.603568,48.16,-147.490005,-19.25,1770370261.458132
-0.208864,-0.111508,1.65798,34.650002,-160.860001,-16.870001,1770370261.4661
-0.057828,0.076372,1.661884,16.450001,-161.350006,-14.98,1770370261.474108
0.081252,0.247904,1.603324,-0.21,-148.259995,-12.67,1770370261.482227
0.187148,0.358192,1.483276,-20.58,-126.489998,-7.7,1770370261.490099
0.246928,0.41724,1.33468,-33.880001,-96.739998,2.94,1770370261.498146
0.262788,0.456768,1.166076,-42.84,-63.98,8.82,1770370261.506083
0.244488,0.470188,0.996496,-49.0,-32.34,14.98,1770370261.514107
0.193736,0.477996,0.8174,-46.900002,-5.39,14.42,1770370261.522123
0.132004,0.488976,0.651724,-43.470001,17.92,13.58,1770370261.530177
0.059536,0.512888,0.506544,-37.169998,36.259998,12.25,1770370261.538212
-0.008296,0.53924,0.38796,-31.01,49.279999,8.82,1770370261.546153
-0.072468,0.57218,0.29768,-27.09,56.700001,2.52,1770370261.554124
-0.122976,0.598288,0.245464,-25.129999,55.580002,-2.17,1770370261.562102
-0.161772,0.617076,0.22448,-26.879999,50.400002,-6.79,1770370261.5701
-0.196176,0.617564,0.22326,-29.959999,44.799999,-8.05,1770370261.578123
-0.2196,0.579744,0.236924,-32.48,40.459999,-5.25,1770370261.586099
-0.226676,0.511424,0.266448,-33.110001,36.75,-5.81,1770370261.594103
-0.212524,0.419192,0.325984,-29.4,32.200001,-6.58,1770370261.602115
-0.182756,0.3172,0.414312,-20.65,32.619999,-11.62,1770370261.610111
-0.151524,0.208132,0.521672,-7.35,36.189999,-10.85,1770370261.618105
-0.134444,0.11346,0.64538,6.65,41.720001,-13.86,1770370261.626092
-0.12566,0.02806,0.798368,16.66,45.150002,-11.34,1770370261.634124
-0.125172,-0.027328,0.979172,27.23,45.779999,-7.77,1770370261.642192
-0.143228,-0.058316,1.231712,32.619999,46.900002,-0.28,1770370261.650096
-0.184464,-0.092232,1.525,32.970001,48.580002,10.57,1770370261.658133
-0.245708,-0.137372,1.738012,30.799999,47.740002,17.360001,1770370261.666104
-0.309636,-0.20374,1.842444,24.57,45.290001,27.65,1770370261.674103
-0.36478,-0.268644,1.809016,16.309999,42.77,34.860001,1770370261.682181
-0.441152,-0.364536,1.691164,3.99,44.66,40.669998,1770370261.690104
-0.547048,-0.478484,1.58844,-4.13,55.439999,38.779999,1770370261.698159
-0.671,-0.57584,1.56526,-12.32,76.860001,27.58,1770370261.70613
-0.800808,-0.640012,1.590148,-23.24,98.980003,11.2,1770370261.714112
-0.859368,-0.595116,1.58966,-31.780001,116.059998,-7.0,1770370261.7221
-0.9089,-0.444568,1.527684,-33.740002,116.620003,-17.43,1770370261.73027
-0.974048,-0.257664,1.411296,-34.860001,100.169998,-23.73,1770370261.738139
-1.008208,-0.08052,1.274412,-39.34,72.800003,-30.450001,1770370261.746105
-0.996496,0.06832,1.132648,-44.799999,42.349998,-37.099998,1770370261.754094
-0.93452,0.143716,0.98332,-46.900002,13.37,-45.849998,1770370261.76221
-0.826428,0.165432,0.824232,-43.540001,-13.93,-56.279999,1770370261.77011
-0.709796,0.184708,0.679296,-35.139999,-34.650002,-56.98,1770370261.778111
-0.5917,0.208376,0.564128,-20.299999,-49.98,-60.130001,1770370261.786098
-0.48068,0.238632,0.471896,-10.57,-62.299999,-56.98,1770370261.794087
-0.396988,0.270108,0.3843,0.56,-68.739998,-52.150002,1770370261.802106
-0.332816,0.265472,0.316712,4.55,-73.43,-48.650002,1770370261.810179
-0.270596,0.271328,0.273524,10.08,-76.650002,-43.68,1770370261.818123
-0.222528,0.25376,0.248392,12.32,-77.629997,-38.779999,1770370261.826093
-0.193492,0.215696,0.228628,14.35,-75.809998,-33.18,1770370261.83413
-0.178608,0.180316,0.190076,14.98,-71.330002,-25.969999,1770370261.842122
-0.158844,0.151768,0.150792,19.25,-67.760002,-19.6,1770370261.850102
-0.152988,0.1159,0.145668,22.75,-64.540001,-6.86,1770370261.858108
-0.16104,0.043676,0.200812,27.790001,-55.02,3.5,1770370261.866097
-0.183244,-0.04758,0.311588,32.549999,-38.080002,16.870001,1770370261.87412
-0.231312,-0.117608,0.445544,40.529999,-15.68,26.32,1770370261.882209
-0.318664,-0.171776,0.613172,51.869999,15.47,36.189999,1770370261.890111
-0.4636,-0.237656,0.880596,63.560001,48.369999,37.450001,1770370261.898116
-0.628788,-0.261324,1.190964,79.730003,73.220001,30.52,1770370261.906087
-0.829844,-0.266204,1.474492,87.639999,82.459999,30.030001,1770370261.914126
-1.070672,-0.291092,1.567212,91.07,73.010002,20.719999,1770370261.922105
-1.297348,-0.362828,1.449604,85.889999,52.57,17.01,1770370261.930111
-1.464488,-0.474336,1.33468,75.32,18.76,3.01,1770370261.938146
-1.400072,-0.543876,1.404952,59.849998,-28.07,-11.97,1770370261.946176
-1.181936,-0.555832,1.568676,40.18,-81.339996,-8.68,1770370261.954139
-0.915732,-0.556076,1.734108,24.99,-135.589996,-4.34,1770370261.962138
-0.667584,-0.53192,1.8849,10.92,-174.929993,-4.41,1770370261.970114
-0.403088,-0.446032,2.002752,-4.27,-190.330002,-4.41,1770370261.978109
-0.170068,-0.294508,2.005192,-18.41,-185.429993,-6.02,1770370261.986097
0.00244,-0.135664,1.88368,-33.389999,-166.529999,-7.0,1770370261.994139
0.142496,-0.024644,1.623576,-46.549999,-143.149994,-6.37,1770370262.002107
0.226432,0.058804,1.336144,-53.130001,-118.650002,0.77,1770370262.010103
0.274988,0.143472,1.074332,-52.779999,-94.43,11.2,1770370262.01811
0.28426,0.205204,0.865224,-46.200001,-71.330002,21.139999,1770370262.026098
0.27572,0.286456,0.725412,-39.900002,-47.32,28.77,1770370262.034163
0.261568,0.387716,0.617076,-32.200001,-22.82,34.09,1770370262.042148
0.217404,0.47824,0.51972,-29.889999,-1.47,37.869999,1770370262.050105
0.141764,0.538752,0.426512,-24.709999,16.17,37.869999,1770370262.058214
0.066124,0.576816,0.32086,-22.75,30.24,32.619999,1770370262.066398
-0.010248,0.596336,0.212036,-18.129999,37.59,25.620001,1770370262.074277
-0.074664,0.593652,0.105408,-13.86,40.040001,13.86,1770370262.082161
-0.110532,0.582916,0.00366,-10.43,39.200001,2.66,1770370262.090106
-0.121512,0.559492,-0.070028,-5.88,36.470001,-5.88,1770370262.098125
-0.123952,0.517524,-0.1098,1.68,32.689999,-14.49,1770370262.106132
-0.111264,0.473116,-0.08906,8.68,32.48,-19.040001,1770370262.114261
-0.097844,0.45384,0.023668,19.459999,39.060001,-18.83,1770370262.122088
-0.10248,0.448716,0.244488,27.58,50.610001,-18.34,1770370262.130104
-0.132736,0.470676,0.57706,29.959999,63.560001,-21.209999,1770370262.138112
-0.152988,0.477752,0.93574,24.57,79.029999,-26.67,1770370262.146274
-0.17446,0.433588,1.142164,18.969999,92.330002,-30.59,1770370262.154123
-0.22692,0.338184,1.316136,18.690001,100.099998,-30.450001,1770370262.162099
-0.281576,0.2074,1.473272,19.67,98.0,-28.139999,1770370262.170097
-0.359168,0.030988,1.586732,27.51,86.239998,-14.28,1770370262.178169
-0.454572,-0.188612,1.771196,43.68,64.050003,-0.63,1770370262.186096
-0.555344,-0.380396,1.963468,60.34,45.779999,9.73,1770370262.194101
-0.585112,-0.43554,1.95688,65.660004,38.639999,11.13,1770370262.202144
-0.5246,-0.41968,1.88734,50.959999,33.740002,12.53,1770370262.210116
-0.515816,-0.487268,1.837076,39.34,36.259998,20.09,1770370262.218104
-0.526796,-0.524844,1.799256,24.99,49.139999,21.629999,1770370262.226092
-0.583404,-0.510448,1.802672,12.46,64.889999,20.860001,1770370262.234111
-0.671732,-0.421632,1.758264,-5.25,83.93,9.38,1770370262.242162
-0.76494,-0.33672,1.624552,-24.08,99.68,3.43,1770370262.250106
-0.838384,-0.275232,1.413492,-44.099998,103.599998,-4.69,1770370262.258106
-0.882304,-0.239852,1.181692,-57.330002,96.529999,-13.86,1770370262.266095
-0.905728,-0.17568,0.970876,-63.98,80.989998,-21.280001,1770370262.274129
-0.9089,-0.104676,0.82106,-64.260002,58.310001,-27.23,1770370262.282084
-0.893528,-0.023668,0.728096,-59.009998,32.830002,-31.57,1770370262.290099
-0.854244,0.04636,0.670268,-49.419998,11.06,-37.240002,1770370262.298104
-0.80276,0.115656,0.621468,-41.02,-8.05,-41.369999,1770370262.30608
-0.724192,0.17324,0.522892,-34.09,-26.389999,-42.07,1770370262.31411
-0.633668,0.204472,0.403088,-25.34,-43.330002,-41.580002,1770370262.32218
-0.549976,0.221308,0.30866,-20.02,-59.009998,-37.450001,1770370262.330119
-0.467748,0.233508,0.23912,-14.42,-72.519997,-36.959999,1770370262.338106
-0.390644,0.24156,0.185196,-9.45,-84.209999,-32.970001,1770370262.346201
-0.318908,0.236436,0.139324,-4.34,-94.57,-28.209999,1770370262.354097
-0.256444,0.213012,0.108092,0.21,-106.400002,-20.51,1770370262.3621
-0.20862,0.177876,0.097356,5.88,-114.519997,-15.19,1770370262.370084
-0.172996,0.15738,0.107604,12.04,-117.599998,-6.58,1770370262.378101
-0.140056,0.13664,0.15372,18.200001,-115.919998,3.64,1770370262.386085
-0.114924,0.094184,0.242048,24.85,-102.269997,11.97,1770370262.394126
-0.111996,0.055876,0.386252,33.529999,-78.050003,17.360001,1770370262.402106
-0.135664,0.014152,0.581696,40.950001,-38.849998,20.16,1770370262.410116
-0.179828,-0.022204,0.803004,46.759998,3.99,22.75,1770370262.41812
-0.262788,-0.065392,1.014552,53.759998,44.240002,22.959999,1770370262.426102
-0.406748,-0.121024,1.212924,65.309998,72.870003,22.540001,1770370262.434132
-0.598044,-0.166896,1.369816,73.220001,82.25,21.139999,1770370262.442259
-0.806908,-0.193492,1.46278,78.400002,71.82,19.6,1770370262.450107
-1.0004,-0.21106,1.529392,68.739998,50.259998,18.059999,1770370262.458155
-1.084824,-0.27206,1.567212,53.970001,23.59,10.71,1770370262.466226
-1.095804,-0.36234,1.636264,38.43,-8.89,9.38,1770370262.474244
-1.041392,-0.466284,1.728008,25.549999,-43.119999,8.61,1770370262.482104
-0.915732,-0.51972,1.819752,15.75,-79.309998,8.05,1770370262.4901
-0.7564,-0.512644,1.894904,3.64,-105.349998,6.72,1770370262.498112
-0.587552,-0.442128,1.92516,-7.35,-118.510002,2.87,1770370262.50616
-0.418216,-0.332816,1.887828,-23.799999,-119.559998,-2.73,1770370262.514122
-0.256444,-0.208132,1.75192,-33.529999,-111.93,-4.2,1770370262.522114
-0.116144,-0.087108,1.552328,-44.450001,-103.739998,-3.85,1770370262.530097
-0.020008,0.003172,1.31516,-49.98,-95.620003,-1.4,1770370262.53821
0.062464,0.098576,1.087508,-52.57,-87.639999,8.96,1770370262.546136
0.106872,0.1586,0.892064,-50.889999,-80.220001,18.76,1770370262.554094
0.1159,0.220576,0.750056,-48.790001,-69.650002,31.360001,1770370262.562143
0.111752,0.289628,0.650992,-47.110001,-55.02,37.240002,1770370262.570104
0.103456,0.368928,0.576084,-47.32,-38.360001,41.580002,1770370262.57811
0.079788,0.440176,0.496052,-47.110001,-19.25,42.490002,1770370262.586101
0.039528,0.484096,0.388204,-46.900002,-4.9,40.25,1770370262.594186
-0.007076,0.511668,0.286944,-42.0,4.83,35.209999,1770370262.602142
-0.049532,0.529724,0.190564,-40.25,11.06,26.32,1770370262.610108
-0.080032,0.527284,0.090768,-32.900002,15.05,19.74,1770370262.618107
-0.097844,0.505324,0.0122,-27.299999,15.96,11.48,1770370262.626085
-0.08784,0.473116,-0.047092,-19.32,15.75,6.23,1770370262.634156
-0.071492,0.433832,-0.061244,-7.63,17.92,1.54,1770370262.642124
-0.055388,0.400648,-0.013664,4.41,25.690001,4.55,1770370262.650111
-0.042944,0.365756,0.110288,18.34,36.119999,5.11,1770370262.658168
-0.044408,0.347456,0.328912,29.75,47.810001,6.09,1770370262.666154
-0.061244,0.346724,0.645868,31.92,60.34,3.99,1770370262.674104
-0.088084,0.360388,0.967704,30.309999,75.040001,-2.73,1770370262.68218
-0.096624,0.307196,1.175104,25.200001,85.540001,-6.65,1770370262.690102
-0.123464,0.209596,1.301496,24.85,92.050003,-8.54,1770370262.698199
-0.16836,0.077592,1.39934,25.41,94.010002,-2.45,1770370262.706137
-0.236436,-0.088084,1.499868,33.529999,84.559998,8.33,1770370262.714124
-0.318908,-0.272792,1.69092,46.759998,66.989998,21.139999,1770370262.722186
-0.405284,-0.435052,1.85318,55.509998,54.599998,27.719999,1770370262.730091
-0.441396,-0.518988,1.860744,55.299999,49.560001,25.76,1770370262.738117
-0.426268,-0.54778,1.828292,42.98,51.939999,24.08,1770370262.746143
-0.42944,-0.566324,1.774612,36.119999,58.869999,27.65,1770370262.754113
-0.476532,-0.635864,1.753384,26.040001,70.980003,22.959999,1770370262.762108
-0.565836,-0.627812,1.74704,13.86,86.660004,15.89,1770370262.770106
-0.676368,-0.545584,1.720932,-2.45,101.639999,4.34,1770370262.778112
-0.764696,-0.43798,1.605032,-19.530001,114.309998,-7.77,1770370262.786098
-0.83814,-0.311588,1.397632,-33.32,113.959999,-14.56,1770370262.794192
-0.894992,-0.196176,1.162416,-41.720001,103.529999,-21.700001,1770370262.80214
-0.931836,-0.069784,0.944036,-45.990002,86.309998,-27.09,1770370262.810102
-0.946232,0.044164,0.790804,-46.130001,62.09,-32.689999,1770370262.818176
-0.94184,0.143228,0.70028,-42.139999,37.169998,-38.080002,1770370262.826104
-0.903288,0.2318,0.649772,-36.259998,15.47,-43.189999,1770370262.834191
-0.846192,0.292556,0.60268,-29.120001,-1.96,-43.049999,1770370262.842141
-0.776164,0.326716,0.544852,-24.08,-16.450001,-42.84,1770370262.850112
-0.702964,0.34648,0.468724,-18.41,-29.68,-43.68,1770370262.858117
-0.629032,0.368196,0.382348,-13.44,-43.470001,-41.580002,1770370262.866111
-0.54534,0.390644,0.305976,-10.08,-58.310001,-39.900002,1770370262.874201
-0.471652,0.403332,0.24766,-7.98,-74.199997,-35.490002,1770370262.882135
-0.396744,0.4026,0.199592,-7.42,-89.949997,-30.1,1770370262.890092
-0.324032,0.389424,0.165676,-5.46,-105.629997,-24.639999,1770370262.898147
-0.256932,0.354044,0.146888,-4.2,-120.959999,-17.780001,1770370262.906095
-0.212524,0.297924,0.127856,-3.15,-129.570007,-10.15,1770370262.914161
-0.166164,0.227652,0.130296,3.01,-132.229996,-1.54,1770370262.922106
-0.129564,0.172264,0.187392,12.46,-123.129997,6.44,1770370262.930119
-0.10614,0.101748,0.332816,22.33,-100.730003,10.92,1770370262.938165
-0.092964,0.048556,0.538264,27.09,-63.07,13.44,1770370262.946101
-0.090524,-0.001952,0.745664,31.57,-18.690001,14.21,1770370262.954108
-0.110288,-0.0671,0.939888,39.759998,23.24,18.27,1770370262.962133
-0.198616,-0.156648,1.155584,52.009998,53.830002,22.26,1770370262.970107
-0.34892,-0.20618,1.426424,68.32,68.25,26.040001,1770370262.97812
-0.53802,-0.224236,1.744112,73.989998,66.639999,25.76,1770370262.986182
-0.741272,-0.237656,1.94224,69.510002,56.139999,23.870001,1770370262.99409
-0.876692,-0.265472,1.944192,57.540001,42.07,21.84,1770370263.002109
-0.921832,-0.33062,1.893196,41.790001,19.040001,19.879999,1770370263.010105
-0.90036,-0.41236,1.8483,33.810001,-12.67,16.450001,1770370263.01811
-0.860344,-0.463356,1.787544,26.67,-45.43,13.09,1770370263.026118
-0.775188,-0.451156,1.749236,17.99,-68.669998,4.48,1770370263.0341
-0.662948,-0.391132,1.70312,6.51,-82.949997,-2.66,1770370263.042118
-0.510448,-0.294508,1.648708,-8.54,-87.150002,-8.4,1770370263.050101
-0.361852,-0.183488,1.558428,-22.190001,-87.639999,-16.52,1770370263.058205
-0.21594,-0.07564,1.406416,-39.200001,-85.400002,-17.99,1770370263.066858
-0.109312,-0.012688,1.236836,-49.419998,-82.389999,-14.77,1770370263.07465
-0.024888,0.018056,1.026996,-54.810001,-78.889999,-11.13,1770370263.082133
0.0427,0.070272,0.854,-54.25,-74.199997,-1.61,1770370263.090272
0.081252,0.127124,0.736392,-50.889999,-67.830002,7.91,1770370263.098126
0.106628,0.193004,0.6588,-44.240002,-56.98,15.82,1770370263.106102
0.128588,0.2562,0.594872,-40.950001,-44.869999,21.91,1770370263.114104
0.128588,0.322324,0.53558,-37.240002,-29.82,27.440001,1770370263.122211
0.10492,0.384788,0.461404,-35.419998,-16.030001,32.41,1770370263.130109
0.060268,0.427,0.376004,-32.200001,-3.57,31.92,1770370263.138135
0.013664,0.454328,0.280112,-30.030001,5.53,31.360001,1770370263.146099
-0.03172,0.45506,0.192028,-25.48,12.95,26.950001,1770370263.154169
-0.057828,0.44042,0.11834,-19.110001,18.059999,20.16,1770370263.162117
-0.073932,0.413336,0.070028,-9.8,24.15,14.56,1770370263.1701
-0.069296,0.381128,0.040504,1.47,32.060001,6.58,1770370263.178111
-0.068076,0.3538,0.05612,17.780001,42.560001,3.85,1770370263.186113
-0.075884,0.332816,0.12566,27.790001,54.25,3.08,1770370263.194101
-0.083448,0.308904,0.287676,38.290001,63.84,-1.19,1770370263.2021
-0.0976,0.305976,0.541924,43.959999,75.669998,-4.9,1770370263.21017
-0.121512,0.30866,0.83326,42.209999,90.019997,-8.89,1770370263.218102
-0.140544,0.277428,1.054812,37.869999,101.849998,-13.72,1770370263.226089
-0.184708,0.19764,1.19438,31.290001,109.550003,-8.47,1770370263.234099
-0.24156,0.10126,1.322968,31.43,108.849998,-5.25,1770370263.242123
-0.315248,0.010248,1.4823,31.780001,94.010002,5.67,1770370263.250094
-0.418216,-0.095892,1.67994,34.299999,73.43,12.81,1770370263.258112
-0.498004,-0.250344,1.843176,37.099998,54.669998,16.030001,1770370263.266121
-0.499956,-0.369904,1.86782,42.98,40.459999,18.200001,1770370263.274116
-0.496784,-0.402844,1.809992,40.880001,36.259998,17.43,1770370263.282099
-0.492636,-0.426512,1.756312,33.32,38.360001,17.92,1770370263.290095
-0.513864,-0.473116,1.730936,22.33,47.110001,18.27,1770370263.298098
-0.569252,-0.4819,1.73118,11.55,63.98,10.71,1770370263.306099
-0.651724,-0.452864,1.723616,-4.13,81.690002,1.05,1770370263.314158
-0.743712,-0.350872,1.654564,-17.780001,97.790001,-9.17,1770370263.322183
-0.817156,-0.216672,1.518656,-30.1,105.209999,-19.040001,1770370263.330121
-0.882304,-0.088328,1.32126,-42.419998,101.57,-24.639999,1770370263.338455
-0.924272,0.020252,1.122644,-48.580002,85.68,-30.799999,1770370263.346104
-0.934764,0.120048,0.922564,-53.41,64.260002,-35.84,1770370263.354098
-0.92354,0.1891,0.763964,-54.669998,39.830002,-43.049999,1770370263.362101
-0.87718,0.240584,0.656116,-50.75,15.19,-45.5,1770370263.37008
-0.81618,0.266936,0.594628,-43.540001,-7.35,-47.669998,1770370263.378111
-0.746396,0.287432,0.535092,-36.75,-22.610001,-45.080002,1770370263.386085
-0.666608,0.307196,0.4514,-30.59,-37.029999,-44.169998,1770370263.394175
-0.586088,0.32818,0.357948,-20.02,-50.119999,-43.82,1770370263.402088
-0.508496,0.352336,0.270596,-15.89,-63.209999,-39.48,1770370263.410105
-0.426512,0.358436,0.211792,-7.14,-75.739998,-37.099998,1770370263.418108
-0.354044,0.355264,0.182268,-3.43,-87.849998,-30.030001,1770370263.426096
-0.282064,0.329156,0.1708,0.98,-97.650002,-24.85,1770370263.434103
-0.220088,0.301584,0.168116,7.42,-103.389999,-18.129999,1770370263.442127
-0.169824,0.265472,0.15738,13.23,-109.410004,-6.02,1770370263.450105
-0.1342,0.216672,0.159332,15.4,-111.720001,3.85,1770370263.45814
-0.117364,0.15006,0.188612,22.610001,-106.610001,11.83,1770370263.46611
-0.106384,0.058804,0.277916,27.299999,-88.199997,22.190001,1770370263.474106
-0.105652,-0.012932,0.443104,32.060001,-58.66,24.639999,1770370263.482118
-0.127124,-0.05978,0.651724,34.299999,-19.809999,24.639999,1770370263.490095
-0.16226,-0.088572,0.85888,40.950001,23.59,25.549999,1770370263.498118
-0.260104,-0.162504,1.093608,49.209999,56.84,27.23,1770370263.506139
-0.415776,-0.2257,1.310524,62.23,73.360001,26.25,1770370263.514113
-0.615368,-0.267424,1.52378,74.760002,73.220001,25.41,1770370263.522102
-0.843508,-0.287432,1.700924,74.760002,59.43,20.93,1770370263.530099
-1.004304,-0.316224,1.749968,64.959999,41.93,13.44,1770370263.538125
-1.068476,-0.351848,1.750944,49.630001,12.88,7.14,1770370263.546199
-1.087264,-0.4209,1.74582,35.560001,-19.389999,-1.82,1770370263.554142
-1.006744,-0.472384,1.748748,20.58,-55.860001,-4.34,1770370263.56211
-0.8479,-0.470676,1.793888,12.32,-91.629997,-8.26,1770370263.570092
-0.673684,-0.412116,1.847324,-0.21,-114.870003,-12.6,1770370263.578228
-0.490684,-0.287432,1.844152,-10.43,-125.790001,-15.33,1770370263.586102
-0.310612,-0.163724,1.770708,-25.9,-125.230003,-17.57,1770370263.594158
-0.155428,-0.0366,1.600396,-38.009998,-119.699997,-17.92,1770370263.602097
-0.031964,0.050508,1.380064,-49.630001,-113.959999,-14.98,1770370263.610094
0.0732,0.131028,1.146068,-53.130001,-106.330002,-7.77,1770370263.618158
0.132492,0.200812,0.947208,-50.540001,-97.790001,6.09,1770370263.626081
0.162992,0.273768,0.798368,-47.32,-85.330002,17.01,1770370263.63418
0.174948,0.350872,0.700524,-42.630001,-68.669998,26.110001,1770370263.642113
0.170068,0.440664,0.629032,-41.790001,-49.77,26.67,1770370263.650098
0.161772,0.510448,0.55388,-41.439999,-30.870001,26.809999,1770370263.658139
0.13176,0.565348,0.463356,-44.240002,-12.95,25.129999,1770370263.666243
0.085156,0.613904,0.354776,-45.43,2.38,22.540001,1770370263.67411
0.039528,0.617808,0.244,-44.799999,10.85,20.370001,1770370263.682104
-0.00488,0.587552,0.150792,-42.98,15.26,13.86,1770370263.690104
-0.026108,0.542656,0.079056,-36.889999,17.92,7.49,1770370263.698168
-0.033916,0.487024,0.026108,-28.77,21.700001,3.57,1770370263.706104
-0.034648,0.429684,-0.008784,-13.44,28.280001,2.8,1770370263.714104
-0.0366,0.365024,0.009516,6.3,38.849998,4.2,1770370263.722109
-0.040992,0.321104,0.100528,24.780001,50.049999,3.43,1770370263.730928
-0.036844,0.287676,0.27938,38.360001,61.32,-2.73,1770370263.738182
-0.049044,0.273036,0.540948,46.34,73.220001,-6.09,1770370263.746103
-0.066856,0.277184,0.863028,46.619999,90.230003,-13.09,1770370263.754122
-0.092232,0.246928,1.115568,44.099998,108.57,-13.93,1770370263.762272
-0.129808,0.185196,1.263188,39.619999,119.489998,-11.13,1770370263.770094
-0.183976,0.092476,1.372012,38.43,123.269997,-3.85,1770370263.778109
-0.259616,-0.001464,1.534028,38.57,112.559998,10.5,1770370263.786097
-0.368196,-0.101748,1.741428,40.880001,90.440002,20.16,1770370263.794156
-0.462136,-0.250344,1.922476,41.860001,67.760002,26.25,1770370263.802288
-0.505568,-0.379664,1.882216,37.52,53.830002,28.49,1770370263.810085
-0.513864,-0.445544,1.78974,30.1,49.279999,30.379999,1770370263.818164
-0.520452,-0.520452,1.722884,17.219999,53.900002,30.24,1770370263.826098
-0.573888,-0.621712,1.687748,6.86,64.68,30.17,1770370263.834223
-0.671244,-0.691252,1.685552,-3.57,80.360001,14.98,1770370263.8421
-0.759816,-0.652944,1.677256,-14.7,98.769997,-1.61,1770370263.850099
-0.843508,-0.521428,1.626992,-25.34,110.739998,-16.450001,1770370263.858112
-0.903532,-0.340868,1.49572,-37.59,113.330002,-23.940001,1770370263.866111
-0.94184,-0.155428,1.284904,-44.939999,101.290001,-33.18,1770370263.874132
-0.9638,0.003172,1.06506,-51.869999,76.440002,-36.959999,1770370263.882258
-0.957944,0.113948,0.86864,-52.779999,47.669998,-41.790001,1770370263.890096
-0.917928,0.196664,0.72224,-53.200001,20.93,-49.0,1770370263.89811
-0.844484,0.247172,0.632936,-46.34,-1.05,-49.209999,1770370263.906096
-0.775676,0.274744,0.564128,-42.279999,-19.879999,-47.18,1770370263.914138
-0.69784,0.29402,0.475068,-33.459999,-32.900002,-48.509998,1770370263.922266
-0.612196,0.321348,0.373564,-26.110001,-46.549999,-44.380001,1770370263.930103
-0.525332,0.352824,0.283772,-16.870001,-60.060001,-43.610001,1770370263.938142
-0.452376,0.38064,0.224724,-10.99,-72.519997,-39.48,1770370263.946101
-0.382104,0.394548,0.193004,-7.56,-82.389999,-35.209999,1770370263.954148
-0.315004,0.384544,0.182268,-2.87,-91.699997,-30.59,1770370263.962115
-0.252052,0.34648,0.166896,-0.42,-98.839996,-21.0,1770370263.970156
-0.198372,0.291336,0.156892,1.68,-103.739998,-12.32,1770370263.978204
-0.160064,0.244488,0.14762,6.02,-108.639999,1.26,1770370263.986129
-0.140056,0.177876,0.17202,10.01,-106.82,11.83,1770370263.994106
-0.132004,0.088816,0.230336,17.01,-97.019997,22.959999,1770370264.002098
-0.135176,0.007564,0.344528,24.99,-72.940002,30.940001,1770370264.010086
-0.15738,-0.054168,0.52338,32.549999,-33.669998,32.27,1770370264.01819
-0.20008,-0.082472,0.72468,39.060001,10.08,31.290001,1770370264.026099
-0.277428,-0.132004,0.953552,49.419998,50.119999,29.4,1770370264.034236
-0.399672,-0.185928,1.216828,62.09,78.260002,24.43,1770370264.042106
-0.572912,-0.216672,1.489132,75.739998,82.669998,21.77,1770370264.0501
-0.777384,-0.214964,1.684332,80.150002,69.650002,20.93,1770370264.058243
-0.962092,-0.232044,1.780956,69.720001,46.549999,16.1,1770370264.066449
-1.037976,-0.283772,1.787056,54.25,21.07,8.47,1770370264.074368
-1.073844,-0.369904,1.795108,38.360001,-7.7,1.96,1770370264.082127
-1.010648,-0.46238,1.7812,24.780001,-44.869999,-3.78,1770370264.090424
-0.86864,-0.504836,1.79706,14.91,-78.610001,-5.67,1770370264.098123
-0.713944,-0.492148,1.834148,5.67,-104.720001,-9.94,1770370264.1061
-0.53802,-0.399428,1.833904,-7.42,-117.25,-11.27,1770370264.114085
-0.36356,-0.268156,1.777296,-17.99,-117.389999,-16.450001,1770370264.122105
-0.196908,-0.142984,1.616256,-37.66,-112.489998,-13.86,1770370264.130183
-0.071248,-0.053924,1.40178,-48.02,-105.419998,-13.16,1770370264.138132
0.019276,0.019276,1.158756,-55.860001,-96.32,-5.53,1770370264.146098
0.087352,0.090524,0.94672,-53.41,-86.519997,3.92,1770370264.154105
0.124684,0.162504,0.784216,-49.0,-75.459999,14.07,1770370264.162113
0.138592,0.241316,0.675392,-44.869999,-60.130001,24.780001,1770370264.170177
0.144936,0.327692,0.600728,-39.759998,-43.119999,28.98,1770370264.17818
0.140544,0.399916,0.527772,-39.830002,-27.65,32.48,1770370264.186099
0.113216,0.469944,0.44286,-39.759998,-12.53,31.08,1770370264.194102
0.07442,0.518012,0.344284,-40.110001,-0.14,31.709999,1770370264.202224
0.028792,0.53314,0.246684,-40.110001,6.37,26.879999,1770370264.210115
-0.013908,0.537776,0.144692,-36.470001,10.57,21.629999,1770370264.218143
-0.038552,0.521916,0.060024,-31.99,14.42,12.6,1770370264.226101
-0.052216,0.477752,-0.002928,-24.360001,19.809999,6.93,1770370264.234381
-0.040504,0.433832,-0.047336,-13.58,24.85,1.4,1770370264.242107
-0.041968,0.380884,-0.02684,0.21,35.349998,2.24,1770370264.250092
-0.047336,0.332572,0.07564,16.24,48.02,2.38,1770370264.258108
-0.062708,0.325496,0.260836,26.110001,62.790001,-0.42,1770370264.266213
-0.080764,0.325984,0.550708,33.669998,77.209999,-6.44,1770370264.2741
-0.116388,0.351604,0.854,32.830002,94.010002,-11.97,1770370264.282093
-0.14518,0.329156,1.076528,30.1,109.970001,-17.08,1770370264.290092
-0.204716,0.254248,1.219268,26.530001,118.160004,-17.92,1770370264.298115
-0.278892,0.175192,1.341268,28.42,119.980003,-14.98,1770370264.306156
-0.374784,0.071492,1.492304,29.120001,109.970001,-3.85,1770370264.314075
-0.506544,-0.0732,1.701656,36.889999,90.650002,4.55,1770370264.322084
-0.612684,-0.224724,1.90442,45.990002,69.860001,10.92,1770370264.3301
-0.654408,-0.307196,1.907836,47.389999,52.360001,11.41,1770370264.338244
-0.622932,-0.33428,1.811456,37.310001,40.599998,12.18,1770370264.346091
-0.593408,-0.396256,1.738012,25.200001,36.959999,17.57,1770370264.354096
-0.6039,-0.501176,1.706536,13.37,39.27,20.16,1770370264.362095
-0.662704,-0.587552,1.711172,-0.77,51.799999,18.34,1770370264.370088
-0.738832,-0.61,1.711172,-20.860001,65.379997,3.22,1770370264.378168
-0.790804,-0.543876,1.640168,-37.450001,79.870003,-11.62,1770370264.386125
-0.826916,-0.415532,1.445456,-48.860001,86.449997,-20.370001,1770370264.394114
-0.856928,-0.265228,1.216096,-55.790001,82.879997,-27.09,1770370264.402099
-0.876936,-0.120536,0.99674,-58.099998,67.900002,-31.290001,1770370264.410089
-0.88084,-0.003172,0.826916,-54.880001,49.84,-37.310001,1770370264.418137
-0.867664,0.075884,0.719556,-50.119999,30.379999,-41.93,1770370264.426138
-0.831796,0.14396,0.641964,-43.470001,12.04,-42.139999,1770370264.434111
-0.782508,0.190076,0.56242,-38.080002,-4.13,-43.610001,1770370264.442114
-0.726388,0.22936,0.479216,-31.290001,-19.32,-43.470001,1770370264.450159
-0.6588,0.269864,0.40138,-25.969999,-35.139999,-42.139999,1770370264.458129
-0.593896,0.304024,0.319396,-19.32,-48.860001,-41.369999,1770370264.46611
-0.520452,0.319152,0.260104,-14.63,-62.509998,-38.779999,1770370264.47407
-0.452132,0.314028,0.226676,-9.8,-76.860001,-33.040001,1770370264.48218
-0.385276,0.289384,0.208376,-3.22,-88.199997,-25.620001,1770370264.490165
-0.330376,0.238876,0.185684,1.89,-98.839996,-16.450001,1770370264.498111
-0.284016,0.210572,0.16592,10.57,-111.300003,-7.91,1770370264.506229
-0.245708,0.190564,0.155672,15.68,-120.82,2.1,1770370264.514086
-0.215696,0.146888,0.17934,22.75,-123.830002,8.75,1770370264.5221
-0.206912,0.079788,0.252296,29.120001,-113.050003,18.48,1770370264.530099
-0.218136,0.020496,0.40138,37.169998,-85.75,22.959999,1770370264.538296
-0.243268,-0.013664,0.598288,39.689999,-45.009998,24.219999,1770370264.54611
-0.283772,-0.048556,0.800808,43.959999,-2.24,24.08,1770370264.554126
-0.367464,-0.116632,1.039684,50.400002,32.130001,22.68,1770370264.562106
-0.50508,-0.173484,1.278804,62.439999,48.23,25.200001,1770370264.570109
-0.687836,-0.195444,1.47742,73.150002,44.029999,26.32,1770370264.578109
-0.890356,-0.190076,1.636508,70.629997,26.459999,23.52,1770370264.586096
-1.022604,-0.2074,1.713368,55.23,6.3,18.83,1770370264.594137
-1.06506,-0.256444,1.765096,37.099998,-19.879999,14.91,1770370264.602099
-1.0431,-0.354044,1.813652,20.23,-51.73,6.65,1770370264.610093
-0.931836,-0.450424,1.826584,5.18,-83.089996,5.88,1770370264.618159
-0.759572,-0.4758,1.844152,-1.19,-110.459999,1.54,1770370264.626082
-0.587308,-0.454572,1.841712,-10.22,-130.690002,-2.94,1770370264.634103
-0.403332,-0.366488,1.803648,-16.1,-135.449997,-7.84,1770370264.642132
-0.21228,-0.228628,1.71044,-27.860001,-132.160004,-8.54,1770370264.650105
-0.055388,-0.09638,1.526708,-38.57,-126.279999,-9.1,1770370264.658145
0.05612,-0.007076,1.276852,-47.669998,-117.949997,-4.9,1770370264.666127
0.138836,0.055876,1.024556,-51.52,-108.919998,5.04,1770370264.6741
0.187148,0.11712,0.813008,-49.77,-97.650002,18.549999,1770370264.682115
0.199836,0.182512,0.655628,-48.02,-82.879997,30.24,1770370264.690102
0.208376,0.241804,0.551684,-43.959999,-66.220001,37.310001,1770370264.698112
0.202276,0.309636,0.466772,-40.32,-47.32,41.02,1770370264.70619
0.17446,0.36478,0.383812,-37.869999,-28.77,40.32,1770370264.714095
0.138104,0.403088,0.308904,-36.330002,-11.9,39.130001,1770370264.722167
0.094916,0.424072,0.236436,-36.75,-0.7,37.59,1770370264.730098
0.061732,0.433588,0.175192,-35.91,8.05,27.58,1770370264.738151
0.027328,0.4331,0.127124,-33.459999,14.7,25.200001,1770370264.746117
0.00976,0.402844,0.082716,-26.74,21.98,17.780001,1770370264.754097
0.003172,0.366732,0.029036,-16.799999,28.700001,12.32,1770370264.762099
-0.000732,0.323056,0.001464,-2.45,37.59,12.04,1770370264.770218
-0.008784,0.289872,0.040748,15.61,47.950001,13.09,1770370264.778115
-0.01098,0.259128,0.1891,29.540001,59.5,10.99,1770370264.786099
-0.020008,0.245952,0.421388,38.990002,72.870003,12.32,1770370264.794099
-0.04026,0.258152,0.747616,45.080002,85.68,6.02,1770370264.802142
-0.066124,0.244244,1.073356,38.57,101.220001,2.66,1770370264.810097
-0.08174,0.182268,1.262212,37.73,112.629997,1.4,1770370264.81815
-0.118828,0.065392,1.356884,36.959999,117.879997,2.87,1770370264.826095
-0.14884,-0.05002,1.491816,42.0,110.879997,13.16,1770370264.834085
-0.227408,-0.146888,1.68726,47.459999,94.43,23.17,1770370264.84212
-0.326472,-0.24156,1.915644,53.970001,75.32,31.85,1770370264.85012
-0.391132,-0.36112,2.024712,52.779999,62.580002,34.860001,1770370264.858107
-0.427976,-0.431636,1.98494,38.849998,57.330002,32.759998,1770370264.866096
-0.447008,-0.49532,1.902468,24.01,63.139999,33.740002,1770370264.874118
-0.494588,-0.586332,1.802916,10.64,74.970001,27.09,1770370264.882234
-0.592676,-0.638792,1.740696,-1.19,93.099998,18.34,1770370264.890107
-0.69296,-0.576572,1.699216,-10.36,112.419998,1.54,1770370264.898109
-0.79788,-0.441152,1.617964,-20.09,129.779999,-10.71,1770370264.906098
-0.888404,-0.26962,1.483032,-29.68,137.479996,-21.700001,1770370264.914086
-0.950868,-0.099064,1.285636,-39.759998,130.970001,-26.879999,1770370264.922172
-0.992592,0.018056,1.069208,-48.860001,112.839996,-33.669998,1770370264.930094
-1.00528,0.106384,0.869372,-52.639999,83.650002,-38.849998,1770370264.938195
-0.989664,0.16714,0.7076,-52.57,48.790001,-42.84,1770370264.94627
-0.93574,0.218136,0.59536,-47.110001,19.950001,-41.23,1770370264.954154
-0.858148,0.254004,0.523136,-37.52,-6.16,-39.200001,1770370264.962096
-0.770552,0.282064,0.46238,-28.139999,-26.110001,-36.540001,1770370264.970109
-0.685396,0.310368,0.392352,-18.200001,-43.119999,-35.07,1770370264.978233
-0.594628,0.337452,0.309392,-10.64,-55.790001,-30.59,1770370264.986098
-0.509472,0.358924,0.238876,-6.93,-69.580002,-29.540001,1770370264.9941
-0.428708,0.368196,0.182268,-4.34,-83.510002,-24.5,1770370265.0021
-0.344772,0.365512,0.142008,-0.35,-96.529999,-23.52,1770370265.010093
-0.26718,0.335988,0.110288,0.56,-109.480003,-14.84,1770370265.018173
-0.198372,0.302072,0.089792,0.77,-122.639999,-7.91,1770370265.026111
-0.14518,0.24034,0.096136,1.54,-129.009995,1.61,1770370265.034091
-0.100772,0.176656,0.112728,8.75,-129.009995,11.13,1770370265.042222
-0.074664,0.110044,0.171776,12.81,-117.599998,18.76,1770370265.050097
-0.059292,0.051484,0.30012,22.610001,-91.209999,24.219999,1770370265.058136
-0.068564,0.01586,0.492148,30.73,-49.419998,26.32,1770370265.066265
-0.078812,-0.014396,0.72224,33.880001,-1.61,26.879999,1770370265.075027
-0.11224,-0.047092,0.940864,41.650002,43.330002,25.059999,1770370265.082158
-0.226676,-0.112972,1.180228,51.799999,79.449997,27.58,1770370265.090116
-0.42212,-0.172996,1.487424,68.669998,97.790001,25.059999,1770370265.098188
-0.656848,-0.198128,1.780956,77.209999,98.769997,24.290001,1770370265.106191
-0.905972,-0.22204,1.921988,73.360001,86.239998,20.790001,1770370265.114094
-1.049688,-0.252052,1.891976,58.59,66.709999,17.709999,1770370265.122109
-1.109956,-0.321592,1.851472,45.220001,38.150002,11.34,1770370265.130104
-1.114836,-0.414312,1.8056,31.08,-1.05,10.64,1770370265.138253
-1.049932,-0.471896,1.78364,19.67,-42.560001,3.22,1770370265.146103
-0.925492,-0.467992,1.78974,8.12,-76.160004,-1.33,1770370265.154101
-0.753228,-0.41968,1.779248,-6.79,-94.919998,-7.21,1770370265.162307
-0.569252,-0.330376,1.721908,-24.43,-101.849998,-8.61,1770370265.170101
-0.391864,-0.216428,1.585268,-39.549999,-102.760002,-11.62,1770370265.178121
-0.2501,-0.119072,1.394704,-53.900002,-99.82,-7.35,1770370265.186101
-0.138592,-0.033184,1.180472,-62.23,-96.949997,2.1,1770370265.194219
-0.048312,0.055632,0.968924,-63.07,-91.209999,10.43,1770370265.202134
0.012444,0.162504,0.793,-57.75,-83.860001,25.76,1770370265.210096
0.042944,0.24278,0.68198,-50.889999,-73.080002,36.540001,1770370265.218145
0.06588,0.324764,0.595848,-49.209999,-63.279999,46.34,1770370265.226095
0.072956,0.394548,0.515572,-47.669998,-51.029999,49.77,1770370265.234157
0.06954,0.449448,0.41724,-49.349998,-41.439999,51.380001,1770370265.242142
0.052704,0.471408,0.304024,-49.349998,-33.18,50.68,1770370265.250096
0.026108,0.475068,0.192028,-45.43,-25.690001,48.09,1770370265.258104
-0.00488,0.453596,0.105896,-42.139999,-19.809999,44.029999,1770370265.266187
-0.0183,0.42944,0.037576,-33.25,-11.48,35.209999,1770370265.274137
-0.024644,0.397232,0.0,-22.75,-4.9,29.889999,1770370265.2821
-0.023668,0.366244,-0.022448,-11.55,4.62,24.639999,1770370265.290098
-0.018544,0.340868,0.002928,7.21,16.59,20.370001,1770370265.298104
-0.0122,0.326228,0.10004,20.790001,30.73,16.450001,1770370265.306216
-0.017812,0.334768,0.27328,34.650002,46.830002,12.6,1770370265.314083
-0.037576,0.35746,0.537532,42.700001,65.449997,5.25,1770370265.322103
-0.063684,0.377468,0.857904,39.689999,87.849998,-1.75,1770370265.33009
-0.092476,0.35136,1.086044,32.759998,107.449997,-8.47,1770370265.338277
-0.151524,0.263276,1.222928,23.030001,124.529999,-10.78,1770370265.346085
-0.222284,0.15128,1.364448,19.110001,132.929993,-10.15,1770370265.354109
-0.322812,0.04392,1.561844,21.139999,128.169998,0.98,1770370265.362119
-0.472384,-0.090524,1.856596,24.01,109.970001,9.03,1770370265.37025
-0.57584,-0.274988,2.07278,28.42,87.779999,14.98,1770370265.378122
-0.643672,-0.391132,2.034716,31.85,68.110001,17.5,1770370265.386107
-0.648796,-0.424804,1.885632,22.33,51.240002,20.02,1770370265.394099
-0.640744,-0.497028,1.758996,10.29,43.68,21.42,1770370265.402097
-0.665632,-0.546072,1.69946,0.77,45.779999,23.450001,1770370265.410231
-0.7259,-0.568764,1.695556,-11.41,58.59,14.21,1770370265.418144
-0.790316,-0.509472,1.661152,-27.440001,77.349998,0.84,1770370265.426099
-0.8357,-0.3904,1.519388,-41.439999,92.190002,-12.25,1770370265.434101
-0.860344,-0.244,1.281244,-51.310001,95.900002,-22.049999,1770370265.442099
-0.8723,-0.09516,1.026508,-58.869999,87.010002,-24.709999,1770370265.450109
-0.880596,-0.007076,0.82716,-61.950001,71.330002,-28.629999,1770370265.458096
-0.8723,0.050752,0.682956,-60.34,52.009998,-30.66,1770370265.466095
-0.847412,0.098332,0.580964,-56.209999,31.57,-30.59,1770370265.474254
-0.806908,0.120292,0.50996,-49.77,13.44,-31.780001,1770370265.4821
-0.747372,0.145424,0.446032,-42.0,-4.06,-29.33,1770370265.490101
-0.674904,0.173728,0.372344,-33.110001,-23.799999,-29.889999,1770370265.49811
-0.605608,0.199104,0.287432,-23.52,-42.560001,-28.91,1770370265.506104
-0.536556,0.219112,0.219844,-18.969999,-61.32,-26.530001,1770370265.514191
-0.472384,0.243024,0.176412,-15.75,-76.860001,-29.33,1770370265.522134
-0.391132,0.250832,0.155916,-13.65,-92.470001,-25.059999,1770370265.530096
-0.314272,0.226432,0.137128,-11.97,-106.68,-23.66,1770370265.53811
-0.25132,0.172752,0.112728,-11.48,-118.720001,-14.0,1770370265.546153
-0.198372,0.112972,0.108336,-7.42,-127.190002,-6.44,1770370265.554119
-0.154452,0.0488,0.142984,-0.07,-128.380005,4.55,1770370265.5621
-0.12444,-0.017568,0.22692,11.13,-118.720001,18.48,1770370265.570096
-0.115656,-0.080032,0.383324,22.75,-93.169998,25.620001,1770370265.578146
-0.143228,-0.133956,0.581208,36.189999,-52.779999,31.780001,1770370265.586102
-0.191296,-0.184708,0.791536,50.68,-0.56,33.950001,1770370265.594134
-0.276696,-0.253028,1.018456,68.459999,44.939999,34.09,1770370265.602129
-0.43554,-0.298412,1.259528,85.959999,75.110001,31.85,1770370265.610102
-0.648064,-0.296216,1.459608,101.150002,82.599998,30.66,1770370265.618139
-0.864492,-0.249856,1.564284,103.949997,71.470001,29.049999,1770370265.626082
-1.04676,-0.222284,1.658468,93.099998,51.029999,22.190001,1770370265.634088
-1.132648,-0.24522,1.719956,72.239998,21.42,17.92,1770370265.64212
-1.131916,-0.339892,1.77022,49.84,-13.79,8.05,1770370265.650165
-1.025532,-0.449448,1.829024,32.34,-53.200001,5.6,1770370265.658124
-0.846436,-0.469944,1.912716,17.99,-93.870003,3.29,1770370265.666103
-0.68076,-0.424316,1.96786,5.11,-119.769997,-0.63,1770370265.674098
-0.491172,-0.311344,1.941752,-10.43,-131.110001,-3.5,1770370265.682242
-0.298168,-0.174704,1.825608,-25.200001,-130.619995,-3.29,1770370265.690097
-0.129808,-0.0732,1.627236,-39.619999,-125.089996,-4.76,1770370265.698114
-0.001952,0.016348,1.391288,-46.900002,-118.230003,-1.19,1770370265.7061
0.0976,0.094184,1.143872,-49.84,-108.360001,6.93,1770370265.71409
0.161772,0.176412,0.928176,-45.709999,-96.32,17.99,1770370265.722175
0.190076,0.2379,0.768112,-40.32,-79.870003,28.209999,1770370265.730104
0.212768,0.301096,0.654164,-36.68,-60.900002,37.59,1770370265.738176
0.210084,0.36112,0.54534,-39.41,-40.880001,42.279999,1770370265.746233
0.192272,0.398452,0.447984,-40.880001,-22.75,45.220001,1770370265.754102
0.158356,0.421144,0.35502,-40.950001,-4.55,47.389999,1770370265.762106
0.111752,0.433588,0.260592,-40.740002,8.4,43.400002,1770370265.770094
0.057096,0.429196,0.186904,-37.66,18.129999,39.48,1770370265.778092
0.010004,0.41724,0.11468,-33.389999,25.059999,34.299999,1770370265.786109
-0.020984,0.400404,0.052704,-26.459999,30.379999,23.450001,1770370265.794121
-0.046116,0.38186,0.000244,-16.24,34.860001,18.34,1770370265.802176
-0.053924,0.366,-0.0244,-3.57,39.970001,12.6,1770370265.810122
-0.059536,0.335988,0.002196,11.55,48.02,10.29,1770370265.818147
-0.063196,0.330132,0.109312,25.9,59.360001,6.3,1770370265.826097
-0.082228,0.340136,0.283528,37.099998,72.029999,3.01,1770370265.834128
-0.112728,0.373808,0.57828,40.669998,89.809998,-7.0,1770370265.842418
-0.130784,0.391132,0.88938,37.73,107.800003,-16.309999,1770370265.850089
-0.166164,0.370148,1.133624,33.880001,125.650002,-20.02,1770370265.858112
-0.23668,0.2745,1.299056,28.77,138.179993,-26.32,1770370265.866101
-0.324276,0.1769,1.444968,28.0,141.679993,-20.93,1770370265.874118
-0.441396,0.055388,1.637972,28.07,130.059998,-14.42,1770370265.882104
-0.562176,-0.118096,1.923208,32.970001,102.059998,-3.85,1770370265.890283
-0.672464,-0.311588,2.092056,40.110001,75.879997,4.55,1770370265.898109
-0.717116,-0.374784,2.03984,41.299999,54.669998,5.32,1770370265.906098
-0.674172,-0.381128,1.896124,28.0,37.380001,11.06,1770370265.91408
-0.650992,-0.471408,1.808284,11.55,30.24,13.72,1770370265.922106
-0.65392,-0.541436,1.764608,-1.68,34.720001,17.92,1770370265.930274
-0.701012,-0.591212,1.735816,-16.799999,50.400002,14.84,1770370265.938105
-0.767868,-0.534116,1.640656,-30.1,71.120003,4.97,1770370265.946117
-0.815448,-0.4697,1.479616,-45.009998,85.330002,-8.12,1770370265.954088
-0.833504,-0.349896,1.254404,-56.419998,89.669998,-14.56,1770370265.962117
-0.84668,-0.21594,1.013088,-62.790001,82.809998,-19.25,1770370265.970168
-0.8662,-0.078324,0.831796,-62.650002,65.309998,-21.700001,1770370265.97811
-0.874008,0.00244,0.718824,-61.32,46.830002,-26.32,1770370265.986106
-0.858636,0.081984,0.63806,-53.41,27.370001,-29.469999,1770370265.994122
-0.816912,0.109312,0.573644,-46.48,9.03,-30.1,1770370266.002101
-0.762256,0.141276,0.487756,-36.75,-7.98,-31.43,1770370266.010095
-0.692472,0.17568,0.391864,-27.02,-25.129999,-34.509998,1770370266.018156
-0.61976,0.210084,0.303292,-21.35,-41.650002,-34.369999,1770370266.026123
-0.537044,0.24278,0.244976,-17.780001,-57.959999,-35.84,1770370266.034097
-0.460184,0.264252,0.20252,-13.65,-74.059998,-35.07,1770370266.042118
-0.38796,0.24888,0.178608,-11.9,-87.360001,-34.02,1770370266.050288
-0.315248,0.195932,0.16836,-7.7,-98.980003,-28.139999,1770370266.058147
-0.249856,0.153964,0.14396,-4.97,-106.260002,-22.26,1770370266.066307
-0.201056,0.118828,0.132248,2.1,-114.379997,-13.79,1770370266.074359
-0.164212,0.087352,0.16348,10.43,-114.169998,0.07,1770370266.08213
-0.136396,0.03904,0.247172,22.469999,-105.839996,10.85,1770370266.090114
-0.123464,-0.004392,0.382348,38.009998,-84.07,22.190001,1770370266.098198
-0.148108,-0.044896,0.560712,49.209999,-50.959999,28.35,1770370266.106104
-0.200812,-0.071248,0.74298,60.619999,-6.79,31.57,1770370266.114091
-0.282064,-0.129564,0.919148,73.220001,32.48,30.66,1770370266.122096
-0.430904,-0.186416,1.08214,86.730003,61.669998,29.469999,1770370266.130165
-0.61,-0.237168,1.234396,100.519997,73.43,27.58,1770370266.138123
-0.795928,-0.263032,1.353712,108.080002,68.879997,25.9,1770370266.14612
-0.975024,-0.270352,1.485472,101.989998,53.830002,22.469999,1770370266.154112
-1.070672,-0.30378,1.619672,86.870003,27.16,13.44,1770370266.162205
-1.113616,-0.365512,1.73362,66.989998,-0.91,8.82,1770370266.170105
-1.048224,-0.447008,1.832684,46.200001,-33.459999,2.1,1770370266.17811
-0.887428,-0.493856,1.875872,28.0,-72.660004,2.73,1770370266.186137
-0.718336,-0.47336,1.925648,11.13,-104.300003,0.98,1770370266.194105
-0.534848,-0.363072,1.940776,-3.57,-121.379997,-1.05,1770370266.2022
-0.354532,-0.234484,1.887828,-21.0,-125.300003,-2.17,1770370266.21009
-0.194468,-0.097356,1.729472,-36.330002,-121.800003,-6.72,1770370266.218148
-0.058072,-0.004148,1.502064,-45.080002,-116.059998,-3.5,1770370266.226093
0.037576,0.072224,1.26148,-49.560001,-106.400002,2.73,1770370266.234088
0.116876,0.153964,1.032364,-46.689999,-97.93,8.68,1770370266.242158
0.1586,0.226676,0.867664,-42.77,-85.540001,20.51,1770370266.250113
0.181536,0.293532,0.756156,-35.77,-67.410004,29.26,1770370266.258104
0.186172,0.365756,0.662704,-35.560001,-49.209999,33.880001,1770370266.266095
0.180072,0.427488,0.583892,-36.330002,-29.33,35.560001,1770370266.274099
0.15128,0.462136,0.507032,-37.029999,-11.9,33.529999,1770370266.282193
0.111264,0.486048,0.42822,-41.09,3.92,34.23,1770370266.290116
0.054412,0.489952,0.33062,-43.330002,14.84,33.669998,1770370266.298107
-0.001708,0.482388,0.237412,-43.68,21.700001,29.68,1770370266.30615
-0.048556,0.4514,0.141032,-42.560001,27.51,20.370001,1770370266.314091
-0.074176,0.419436,0.06954,-35.91,29.26,15.12,1770370266.322108
-0.092232,0.376248,0.02196,-25.76,31.57,4.34,1770370266.330095
-0.088816,0.356972,-0.00854,-11.2,36.189999,4.34,1770370266.338107
-0.093208,0.340868,0.030744,5.46,44.939999,-0.7,1770370266.346165
-0.10004,0.338184,0.14396,23.73,55.16,-3.22,1770370266.354112
-0.1159,0.352336,0.347212,34.509998,67.690002,-12.88,1770370266.362078
-0.131028,0.374296,0.655384,38.639999,82.110001,-19.18,1770370266.370083
-0.147132,0.390644,0.94062,34.860001,99.75,-23.309999,1770370266.378099
-0.191296,0.360876,1.142652,29.959999,115.43,-27.09,1770370266.386103
-0.255712,0.258152,1.300764,23.450001,128.100006,-26.879999,1770370266.394216
-0.342576,0.148596,1.441796,20.65,129.429993,-22.68,1770370266.402098
-0.446032,0.001464,1.602104,23.030001,112.769997,-7.21,1770370266.410103
-0.552172,-0.190564,1.819752,32.41,87.080002,0.98,1770370266.418161
-0.650748,-0.348188,1.927844,41.790001,63.139999,11.41,1770370266.426094
-0.666852,-0.39406,1.851716,40.32,44.240002,8.05,1770370266.434162
-0.611708,-0.436516,1.766316,31.43,36.189999,13.86,1770370266.442143
-0.59292,-0.510692,1.719956,20.23,37.799999,21.07,1770370266.450271
-0.602192,-0.566568,1.71898,11.69,47.389999,21.77,1770370266.458102
-0.678076,-0.56242,1.734108,-2.24,66.010002,14.77,1770370266.466082
-0.783728,-0.509716,1.682136,-23.24,85.889999,2.31,1770370266.474105
-0.85644,-0.413824,1.53354,-44.52,101.290001,-12.04,1770370266.482102
-0.903044,-0.287188,1.306132,-61.880001,102.970001,-20.16,1770370266.490273
-0.936472,-0.182512,1.08092,-69.440002,90.860001,-26.6,1770370266.498112
-0.961848,-0.074176,0.876692,-70.0,69.089996,-30.450001,1770370266.5061
-0.97112,0.001952,0.737368,-66.709999,47.810001,-35.84,1770370266.5142
-0.958432,0.063684,0.637572,-57.959999,24.709999,-38.57,1770370266.522105
-0.904508,0.133224,0.5429,-46.759998,0.07,-43.959999,1770370266.530173
-0.824964,0.1952,0.449448,-34.860001,-21.700001,-43.049999,1770370266.538202
-0.735172,0.246928,0.367952,-27.23,-42.700001,-42.490002,1770370266.546146
-0.643428,0.281088,0.293044,-22.540001,-63.07,-46.060001,1770370266.55411
-0.549732,0.28304,0.241072,-21.280001,-79.730003,-44.240002,1770370266.562203
-0.476288,0.257664,0.216672,-17.57,-92.400002,-44.799999,1770370266.5702
-0.404308,0.213256,0.219844,-12.88,-100.169998,-41.02,1770370266.578121
-0.340624,0.180072,0.205936,-7.63,-103.599998,-36.400002,1770370266.586094
-0.288164,0.177388,0.17324,-3.43,-106.610001,-32.41,1770370266.594103
-0.248392,0.179828,0.154452,6.86,-110.809998,-21.700001,1770370266.602128
-0.226676,0.143228,0.178608,11.48,-111.370003,-9.38,1770370266.610101
-0.212524,0.081252,0.244,27.09,-106.050003,4.9,1770370266.618173
-0.198616,0.0122,0.351848,39.549999,-92.75,14.35,1770370266.626191
-0.210572,-0.048556,0.50508,49.209999,-66.5,24.08,1770370266.634141
-0.24766,-0.0915,0.683932,63.279999,-33.669998,29.26,1770370266.642102
-0.308416,-0.133956,0.859856,71.889999,1.82,32.619999,1770370266.650117
-0.415044,-0.194224,1.025532,84.139999,28.84,30.940001,1770370266.658111
-0.55388,-0.254492,1.159732,93.309998,41.16,29.26,1770370266.666112
-0.716628,-0.293776,1.266848,96.529999,40.669998,26.809999,1770370266.674113
-0.859856,-0.312564,1.391288,94.639999,27.719999,21.77,1770370266.682171
-0.954772,-0.344528,1.520852,84.980003,8.75,14.28,1770370266.690108
-0.981612,-0.386252,1.644316,68.669998,-16.799999,12.04,1770370266.698118
-0.914756,-0.432856,1.766316,48.720001,-46.34,6.37,1770370266.706082
-0.759816,-0.453352,1.845128,29.959999,-79.379997,4.27,1770370266.714124
-0.5856,-0.44652,1.897588,16.870001,-110.949997,-1.26,1770370266.722265
-0.427976,-0.375272,1.934432,1.89,-126.629997,-6.02,1770370266.730104
-0.260348,-0.247904,1.927356,-7.21,-128.449997,-9.17,1770370266.738108
-0.099552,-0.089548,1.81536,-18.34,-120.260002,-14.63,1770370266.746313
0.020984,0.047824,1.630408,-29.120001,-107.800003,-15.4,1770370266.754088
0.11224,0.180316,1.38836,-30.450001,-95.550003,-15.4,1770370266.762134
0.18666,0.277184,1.157292,-32.34,-81.970001,-5.46,1770370266.770101
0.216916,0.33184,0.959896,-30.870001,-68.25,3.36,1770370266.778201
0.2257,0.359168,0.794464,-31.5,-51.66,15.19,1770370266.786095
0.20374,0.400648,0.666852,-32.689999,-31.99,21.84,1770370266.794105
0.176412,0.434564,0.568032,-35.84,-11.62,22.469999,1770370266.802104
0.138104,0.452376,0.477508,-40.880001,7.0,25.620001,1770370266.810103
0.089304,0.489708,0.399184,-43.889999,23.17,25.059999,1770370266.818241
0.032208,0.485804,0.340136,-48.09,36.68,23.24,1770370266.826104
-0.021472,0.479948,0.272548,-49.560001,44.380001,18.83,1770370266.834103
-0.070272,0.467748,0.199348,-47.18,47.389999,13.3,1770370266.842101
-0.112484,0.44164,0.12688,-42.0,46.689999,6.44,1770370266.850116
-0.130052,0.410652,0.050996,-30.73,45.43,1.19,1770370266.858113
-0.1281,0.378688,0.000732,-16.66,41.93,-2.1,1770370266.866101
-0.125172,0.334524,-0.014396,-1.47,42.279999,-3.29,1770370266.874219
-0.119072,0.303292,0.049776,14.42,48.509998,-3.71,1770370266.882134
-0.113216,0.287432,0.188124,24.780001,54.599998,-5.11,1770370266.890111
-0.116388,0.27572,0.421876,31.57,67.059998,-8.12,1770370266.898118
-0.12566,0.262544,0.739076,27.790001,81.480003,-14.84,1770370266.906165
-0.1342,0.249856,1.020164,20.860001,100.449997,-19.809999,1770370266.914095
-0.15372,0.176412,1.208288,18.059999,115.639999,-18.83,1770370266.922112
-0.190564,0.067344,1.372988,18.41,125.160004,-15.4,1770370266.930114
-0.247416,-0.030988,1.525244,22.469999,120.610001,-3.71,1770370266.93823
-0.352336,-0.129808,1.73484,26.74,102.970001,3.78,1770370266.946326
-0.444812,-0.284748,1.961028,33.110001,82.529999,16.309999,1770370266.954104
-0.517768,-0.401624,2.025932,41.650002,66.220001,17.99,1770370266.962109
-0.532164,-0.436272,1.916864,39.34,59.220001,15.75,1770370266.970082
-0.522648,-0.453352,1.793644,35.07,60.27,20.440001,1770370266.978109
-0.54168,-0.480192,1.694336,24.99,70.629997,17.57,1770370266.986102
-0.620248,-0.486536,1.668228,16.73,88.690002,10.71,1770370266.994091
-0.734196,-0.45872,1.670424,0.63,112.629997,2.31,1770370267.002108
-0.853024,-0.407236,1.59332,-19.74,134.610001,-10.08,1770370267.010103
-0.952576,-0.33672,1.43838,-42.91,146.369995,-22.26,1770370267.018141
-1.020652,-0.240096,1.194868,-59.779999,139.720001,-27.23,1770370267.026119
-1.073844,-0.143472,0.9455,-68.110001,117.18,-34.860001,1770370267.03412
-1.098244,-0.04636,0.759084,-71.120003,88.550003,-37.099998,1770370267.042067
-1.10166,0.05368,0.65636,-63.349998,55.93,-42.07,1770370267.050117
-1.077992,0.120048,0.58682,-53.900002,27.16,-37.869999,1770370267.058213
-1.011624,0.17446,0.505568,-42.349998,-0.56,-44.73,1770370267.066369
-0.916464,0.232044,0.416752,-34.299999,-27.58,-42.560001,1770370267.074675
-0.811056,0.274744,0.325496,-30.1,-50.189999,-41.16,1770370267.082128
-0.705404,0.29402,0.260592,-27.93,-71.120003,-42.630001,1770370267.090101
-0.59292,0.302072,0.222772,-25.200001,-88.830002,-40.110001,1770370267.098195
-0.50142,0.304512,0.199348,-20.02,-101.290001,-40.810001,1770370267.106103
-0.417728,0.27328,0.18544,-16.66,-110.949997,-37.52,1770370267.114088
-0.352824,0.244244,0.165432,-9.45,-115.290001,-32.48,1770370267.122168
-0.294752,0.217892,0.148352,1.75,-118.720001,-29.469999,1770370267.130304
-0.24888,0.205448,0.141276,14.0,-119.910004,-19.110001,1770370267.138154
-0.203496,0.17568,0.179096,25.969999,-117.949997,-5.53,1770370267.146109
-0.186416,0.110044,0.262544,39.970001,-110.32,9.73,1770370267.154089
-0.181536,0.04758,0.359168,53.970001,-97.510002,24.639999,1770370267.162175
-0.19032,-0.007076,0.476776,63.98,-74.970001,30.799999,1770370267.17016
-0.23058,-0.051484,0.638304,72.870003,-45.220001,38.779999,1770370267.178109
-0.297192,-0.091012,0.806664,82.18,-9.59,38.709999,1770370267.186224
-0.410164,-0.14762,0.99064,87.849998,21.98,37.59,1770370267.194122
-0.549,-0.209596,1.165588,95.550003,40.040001,32.970001,1770370267.20211
-0.709552,-0.252052,1.32004,100.870003,46.060001,26.74,1770370267.210095
-0.867908,-0.289628,1.461804,101.989998,39.130001,24.01,1770370267.218144
-0.955016,-0.364536,1.576728,90.650002,22.4,12.25,1770370267.226152
-1.022116,-0.477264,1.636508,75.529999,1.61,7.77,1770370267.234104
-0.95648,-0.578768,1.7446,61.669998,-27.02,-3.64,1770370267.242104
-0.793,-0.612928,1.836832,45.009998,-65.660004,-1.33,1770370267.250114
-0.64294,-0.587308,1.880996,32.34,-101.080002,-0.98,1770370267.258102
-0.49288,-0.478728,1.916132,19.950001,-122.919998,-3.5,1770370267.266148
-0.337696,-0.26108,1.91418,3.78,-128.169998,-4.34,1770370267.274101
-0.205936,-0.054168,1.817312,-12.32,-120.82,-7.35,1770370267.282096
-0.101016,0.072468,1.629188,-29.889999,-104.720001,-9.45,1770370267.290089
-0.0183,0.173728,1.391288,-40.459999,-86.519997,-9.59,1770370267.298114
0.033672,0.244488,1.147532,-44.450001,-67.410004,-1.96,1770370267.30612
0.056364,0.294508,0.952576,-46.759998,-52.150002,8.26,1770370267.314094
0.06954,0.3477,0.807884,-45.57,-34.790001,14.42,1770370267.322103
0.060512,0.422852,0.707844,-43.68,-21.209999,17.43,1770370267.330093
0.038552,0.517768,0.63074,-40.880001,-8.89,17.57,1770370267.338104
0.022448,0.61732,0.57462,-40.880001,0.42,15.47,1770370267.346386
-0.0061,0.690764,0.498248,-38.639999,7.28,11.83,1770370267.354107
-0.039284,0.725168,0.40138,-36.470001,8.75,11.27,1770370267.362091
-0.069296,0.725656,0.292312,-34.02,5.95,6.58,1770370267.370084
-0.098332,0.691008,0.194956,-31.360001,1.96,2.8,1770370267.378099
-0.110776,0.630252,0.110532,-27.09,-3.92,-3.08,1770370267.386088
-0.104188,0.553392,0.037576,-24.639999,-6.79,-4.62,1770370267.394107
-0.09394,0.467016,-0.024888,-19.18,-6.37,-7.0,1770370267.402257
-0.078812,0.37942,-0.052216,-13.23,-0.35,-4.9,1770370267.410097
-0.059292,0.281576,-0.011712,-4.55,8.54,-3.5,1770370267.418148
-0.028548,0.18788,0.120536,6.09,22.190001,-0.91,1770370267.426101
-0.018544,0.13176,0.32696,12.46,39.689999,-3.08,1770370267.434138
-0.01708,0.105652,0.611464,20.23,64.120003,-4.97,1770370267.442103
-0.024644,0.083204,0.905484,19.25,90.580002,-8.12,1770370267.45012
-0.026108,0.02684,1.096292,20.65,110.529999,-7.0,1770370267.458212
-0.05734,-0.051728,1.252696,29.190001,127.050003,-0.49,1770370267.466118
-0.123464,-0.13664,1.466928,33.669998,135.449997,7.7,1770370267.474114
-0.247172,-0.162992,1.758264,36.889999,133.070007,20.299999,1770370267.482128
-0.386008,-0.221064,2.032276,32.970001,117.599998,25.969999,1770370267.490203
-0.472628,-0.343308,2.13378,27.860001,101.989998,40.669998,1770370267.498125
-0.518988,-0.454816,1.978352,18.549999,89.879997,46.200001,1770370267.506109
-0.573888,-0.568764,1.768756,5.53,87.989998,49.419998,1770370267.514138
-0.693448,-0.686616,1.661152,-4.27,99.190002,42.630001,1770370267.522157
-0.846924,-0.753472,1.631384,-18.690001,120.959999,22.540001,1770370267.530103
-0.952088,-0.669292,1.58844,-29.540001,139.649994,6.79,1770370267.538131
-1.038708,-0.484828,1.467416,-37.799999,149.800003,-11.13,1770370267.546111
-1.132648,-0.27694,1.31028,-43.889999,145.600006,-18.34,1770370267.55411
-1.195112,-0.09638,1.158512,-52.009998,128.520004,-27.719999,1770370267.562101
-1.216096,0.040504,1.0004,-60.41,100.870003,-34.299999,1770370267.570118
-1.19804,0.137372,0.849852,-60.549999,70.139999,-42.07,1770370267.578183
-1.150216,0.205936,0.725656,-56.77,39.060001,-46.48,1770370267.586101
-1.06994,0.276696,0.619272,-51.52,8.4,-51.450001,1770370267.594101
-0.963312,0.347212,0.538508,-43.470001,-15.82,-52.009998,1770370267.602256
-0.854488,0.387472,0.480192,-38.709999,-36.68,-52.009998,1770370267.610102
-0.751764,0.402356,0.402112,-30.66,-53.900002,-51.380001,1770370267.618158
-0.639036,0.392596,0.352336,-25.969999,-69.580002,-46.27,1770370267.626086
-0.541924,0.328912,0.333304,-20.09,-79.519997,-41.09,1770370267.634105
-0.476044,0.241316,0.334036,-13.09,-83.580002,-35.630001,1770370267.642105
-0.427488,0.188856,0.319884,-6.58,-82.669998,-30.17,1770370267.650113
-0.404552,0.177632,0.29402,3.36,-79.870003,-21.139999,1770370267.658134
-0.386496,0.181536,0.266936,13.44,-77.489998,-22.610001,1770370267.666114
-0.375028,0.179584,0.25254,17.639999,-75.669998,-15.75,1770370267.674103
-0.37698,0.148352,0.244,24.360001,-75.529999,-3.99,1770370267.682176
-0.382836,0.091256,0.250344,29.540001,-74.410004,8.61,1770370267.690157
-0.400404,0.012688,0.278648,39.619999,-73.010002,27.02,1770370267.698129
-0.422608,-0.066368,0.337452,52.080002,-70.559998,41.720001,1770370267.706108
-0.438224,-0.142496,0.422608,62.650002,-65.099998,51.799999,1770370267.714251
-0.477752,-0.209596,0.55876,76.089996,-60.130001,57.610001,1770370267.722103
-0.55266,-0.275476,0.721996,82.529999,-50.330002,57.049999,1770370267.730102
-0.657824,-0.35014,0.906948,89.669998,-36.400002,47.32,1770370267.738111
-0.74908,-0.440664,1.10654,90.650002,-23.799999,35.98,1770370267.746125
-0.829112,-0.532652,1.298568,87.639999,-16.030001,21.98,1770370267.754234
-0.840336,-0.619272,1.445944,83.580002,-17.57,10.71,1770370267.762104
-0.875228,-0.724192,1.486204,78.190002,-22.469999,-2.17,1770370267.770098
-0.795196,-0.770064,1.53842,70.769997,-40.459999,-4.97,1770370267.778175
-0.603412,-0.7198,1.650416,62.23,-71.889999,-5.74,1770370267.786126
-0.418948,-0.608048,1.740208,46.41,-105.629997,-1.96,1770370267.794099
-0.28792,-0.44408,1.790716,35.560001,-128.309998,1.4,1770370267.802106
-0.194712,-0.208864,1.828048,19.74,-128.240005,-0.63,1770370267.810158
-0.130784,0.009516,1.808772,1.54,-111.160004,-3.64,1770370267.818245
-0.054656,0.180804,1.672864,-20.299999,-84.769997,-5.32,1770370267.826098
0.002684,0.300608,1.467904,-41.02,-56.349998,3.22,1770370267.834099
0.020984,0.399672,1.268068,-49.419998,-32.689999,8.89,1770370267.842238
0.001952,0.47824,1.092388,-55.790001,-12.67,19.809999,1770370267.850161
-0.040016,0.55144,0.95648,-56.0,1.75,23.1,1770370267.858138
-0.087352,0.61854,0.840336,-54.880001,10.64,20.51,1770370267.866118
-0.1281,0.681736,0.741028,-54.669998,17.15,17.57,1770370267.874099
-0.167628,0.73444,0.642696,-50.259998,16.309999,9.24,1770370267.882129
-0.216672,0.759572,0.537044,-49.560001,11.83,5.53,1770370267.890113
-0.244732,0.762744,0.440176,-48.790001,5.74,0.14,1770370267.89822
-0.257664,0.73322,0.383324,-48.650002,-3.29,-6.79,1770370267.906105
-0.241316,0.676856,0.357948,-50.889999,-14.14,-11.83,1770370267.914125
-0.227164,0.630496,0.332084,-49.630001,-22.120001,-8.26,1770370267.922107
-0.198616,0.549244,0.305976,-48.650002,-30.17,-5.25,1770370267.930167
-0.154696,0.430172,0.297436,-40.950001,-37.869999,-4.34,1770370267.938124
-0.10614,0.313052,0.304268,-31.780001,-42.0,-1.26,1770370267.946099
-0.050264,0.202032,0.320128,-22.889999,-43.540001,-4.06,1770370267.954112
0.004148,0.099308,0.365268,-10.01,-41.23,-2.1,1770370267.962136
0.06344,0.012688,0.442372,2.87,-31.43,-3.5,1770370267.970107
0.113948,-0.06222,0.554368,20.02,-16.450001,-1.61,1770370267.978135
0.152988,-0.109556,0.69784,32.130001,5.53,-5.18,1770370267.986166
0.178608,-0.11956,0.860832,39.200001,26.040001,-3.5,1770370267.994088
0.211548,-0.121756,1.043832,46.900002,50.049999,-1.12,1770370268.002112
0.219844,-0.139812,1.221952,51.799999,73.779999,8.61,1770370268.010101
0.19642,-0.194956,1.409832,58.099998,97.440002,18.059999,1770370268.018233
0.154696,-0.241804,1.5677,57.889999,115.849998,32.48,1770370268.026096
0.057828,-0.277672,1.674328,48.790001,132.160004,48.439999,1770370268.03409
-0.05856,-0.327936,1.700192,33.32,140.979996,61.040001,1770370268.042102
-0.23058,-0.416996,1.678476,13.09,149.729996,72.379997,1770370268.050173
-0.446764,-0.552904,1.613572,0.0,166.460007,72.239998,1770370268.058242
-0.70394,-0.713212,1.538908,-10.57,186.899994,57.400002,1770370268.066397
-0.895236,-0.752984,1.443992,-18.9,204.259995,34.509998,1770370268.074259
-1.045784,-0.641476,1.357372,-17.01,205.240005,16.59,1770370268.082136
-1.164124,-0.443104,1.28466,-14.14,192.919998,0.28,1770370268.090167
-1.251232,-0.224968,1.22488,-16.450001,165.130005,-8.33,1770370268.098121
-1.302228,-0.047336,1.152656,-18.969999,127.610001,-17.780001,1770370268.106103
-1.302716,0.0793,1.053592,-28.0,86.870003,-28.49,1770370268.114198
-1.255624,0.171776,0.952332,-31.639999,46.900002,-36.889999,1770370268.122097
-1.164612,0.241804,0.854488,-33.32,13.72,-45.290001,1770370268.130113
-1.0553,0.30256,0.772992,-31.5,-15.68,-53.34,1770370268.138221
-0.918172,0.366244,0.692716,-28.629999,-36.889999,-59.009998,1770370268.146182
-0.775676,0.402356,0.62342,-23.66,-53.34,-58.310001,1770370268.154126
-0.6588,0.421388,0.579988,-17.219999,-64.889999,-58.169998,1770370268.162303
-0.55388,0.413092,0.543876,-14.07,-69.440002,-54.459999,1770370268.170103
-0.476288,0.396256,0.513132,-6.02,-68.669998,-50.68,1770370268.178111
-0.427488,0.391864,0.482876,-0.42,-61.32,-45.290001,1770370268.186243
-0.40382,0.4026,0.44286,2.87,-51.869999,-41.02,1770370268.194086
-0.400892,0.410896,0.405772,8.96,-40.669998,-39.41,1770370268.202115
-0.411384,0.417484,0.380884,8.75,-30.59,-38.990002,1770370268.210103
-0.433588,0.40992,0.367952,6.23,-19.110001,-32.900002,1770370268.218147
-0.469212,0.366,0.366732,6.65,-5.95,-24.780001,1770370268.22612
-0.5124,0.29768,0.362096,7.35,6.93,-14.35,1770370268.234103
-0.56242,0.227164,0.369172,9.66,16.940001,-2.94,1770370268.2421
-0.6161,0.161772,0.387472,13.65,20.719999,5.04,1770370268.250165
-0.661484,0.083692,0.403576,19.950001,16.309999,18.34,1770370268.258118
-0.712724,-0.021472,0.42456,27.860001,5.04,25.9,1770370268.266096
-0.7503,-0.126148,0.453596,38.5,-11.06,35.98,1770370268.274097
-0.771528,-0.24156,0.514596,55.439999,-28.0,42.700001,1770370268.282095
-0.801296,-0.3843,0.626592,67.970001,-43.889999,43.189999,1770370268.290177
-0.830332,-0.516792,0.777872,78.959999,-57.119999,39.48,1770370268.298209
-0.844972,-0.598288,0.938668,82.739998,-67.550003,24.15,1770370268.306098
-0.846924,-0.626836,1.10044,84.419998,-70.279999,13.3,1770370268.314103
-0.821548,-0.627812,1.265384,80.43,-72.309998,-0.63,1770370268.322113
-0.750788,-0.58682,1.396168,77.07,-77.980003,-11.62,1770370268.330093
-0.63196,-0.533384,1.481324,71.330002,-89.949997,-17.99,1770370268.338101
-0.483608,-0.451644,1.541348,66.43,-108.150002,-24.99,1770370268.346116
-0.344528,-0.308904,1.616744,57.540001,-126.839996,-22.26,1770370268.354123
-0.223748,-0.108092,1.667008,43.889999,-134.119995,-22.889999,1770370268.362098
-0.120048,0.082716,1.648708,27.51,-131.25,-23.379999,1770370268.370085
-0.028792,0.244488,1.543788,12.74,-117.389999,-23.940001,1770370268.378098
0.022692,0.374296,1.385432,-0.98,-93.730003,-18.129999,1770370268.386092
0.039528,0.47702,1.249036,-13.09,-67.900002,-17.15,1770370268.394244
0.021228,0.555588,1.142408,-21.35,-42.700001,-18.690001,1770370268.402083
-0.01586,0.613904,1.037732,-33.810001,-16.940001,-21.700001,1770370268.410108
-0.06344,0.65148,0.935496,-42.77,6.23,-25.200001,1770370268.418142
-0.129564,0.659288,0.843752,-50.959999,25.27,-25.41,1770370268.426101
-0.190564,0.64538,0.754448,-59.639999,39.060001,-33.529999,1770370268.434191
-0.260348,0.611708,0.679784,-61.32,44.939999,-32.830002,1770370268.442182
-0.321104,0.55754,0.61732,-64.260002,45.360001,-34.650002,1770370268.450257
-0.367708,0.498248,0.581452,-61.950001,39.130001,-31.5,1770370268.458151
-0.389424,0.425536,0.575596,-58.099998,26.530001,-31.57,1770370268.466097
-0.37942,0.36234,0.58438,-49.139999,9.66,-29.68,1770370268.4741
-0.351116,0.299144,0.596336,-36.470001,-6.79,-27.440001,1770370268.482131
-0.300852,0.251808,0.632692,-17.780001,-23.799999,-29.26,1770370268.490108
-0.239364,0.23302,0.706624,-5.11,-36.68,-26.389999,1770370268.498111
-0.16836,0.259372,0.795196,3.01,-43.119999,-28.91,1770370268.506083
-0.102724,0.275476,0.873032,4.9,-44.66,-28.139999,1770370268.514104
-0.044408,0.265716,0.935008,1.54,-43.75,-25.620001,1770370268.522158
0.006588,0.201788,0.935252,-6.23,-41.860001,-22.4,1770370268.530093
0.059536,0.092232,0.86986,-12.74,-38.009998,-16.66,1770370268.538109
