acc_x,acc_y,acc_z,gyro_x,gyro_y,gyro_z,timestamp
0.14396,-0.0427,1.004792,-99.330002,29.75,-36.470001,1770369784.223703
0.126148,-0.038552,1.021628,-98.349998,-67.269997,-185.710007,1770369784.231817
0.104676,-0.027084,1.03456,30.030001,-115.150002,-28.84,1770369784.239829
0.090036,-0.021716,1.046028,-12.18,33.25,-24.57,1770369784.247782
0.072956,-0.015372,1.050664,-3.01,24.92,21.49,1770369784.255793
0.060512,-0.011468,1.05286,-7.98,20.16,-11.06,1770369784.263786
0.051484,-0.012444,1.0492,-4.48,14.35,-12.88,1770369784.271779
0.048556,-0.013176,1.039684,-5.6,9.8,-10.85,1770369784.279815
0.050996,-0.022692,1.035292,-5.46,5.11,-12.53,1770369784.287882
0.054412,-0.027084,1.032608,-4.34,0.42,-13.09,1770369784.295808
0.06588,-0.026352,1.0309,-6.44,-3.01,-17.15,1770369784.303775
0.081496,-0.027816,1.0248,-3.99,-5.46,-9.03,1770369784.31178
0.102724,-0.0305,1.020652,-7.35,-7.91,-16.799999,1770369784.319833
0.120048,-0.032452,1.02236,-3.36,-11.34,-12.32,1770369784.327794
0.13542,-0.029524,1.019676,-4.9,-13.09,-18.83,1770369784.335787
0.15128,-0.027816,1.01504,-3.92,-14.0,-16.799999,1770369784.34378
0.166164,-0.028548,1.01138,-6.16,-14.91,-17.43,1770369784.351774
0.175192,-0.036356,1.016748,-6.23,-13.65,-15.89,1770369784.359793
0.187148,-0.038308,1.020652,-6.16,-13.3,-13.44,1770369784.367776
0.192516,-0.048312,1.022848,-4.76,-11.76,-12.53,1770369784.37577
0.195932,-0.061244,1.02724,-8.26,-10.57,-11.27,1770369784.383767
0.19642,-0.073688,1.036756,-5.11,-8.26,-12.88,1770369784.391799
0.194224,-0.0793,1.033828,-3.57,-8.33,-8.26,1770369784.399903
0.189832,-0.08662,1.021872,-2.45,-6.44,-8.05,1770369784.407793
0.186172,-0.088572,1.0065,-2.03,-7.91,-8.82,1770369784.415776
0.177876,-0.095648,1.003084,-4.9,-7.77,-7.77,1770369784.423902
0.173972,-0.100284,1.000644,-1.54,-7.91,-5.74,1770369784.431767
0.172264,-0.096624,0.998936,-3.78,-8.68,-7.14,1770369784.439835
0.164944,-0.094428,0.99796,-0.7,-9.8,-2.94,1770369784.447783
0.162748,-0.08418,0.999912,-1.47,-10.01,-2.31,1770369784.455986
0.163236,-0.074176,1.001376,-2.59,-9.8,-1.4,1770369784.463794
0.1647,-0.067832,1.003084,-3.36,-9.45,-3.5,1770369784.471784
0.171532,-0.065636,0.999912,-3.78,-7.91,-0.98,1770369784.479786
0.176656,-0.072956,1.003816,-5.25,-6.16,-2.94,1770369784.48778
0.179828,-0.079788,1.007476,-3.71,-5.88,-2.52,1770369784.49589
0.183244,-0.084912,1.012356,-5.88,-2.03,-3.78,1770369784.503787
0.1891,-0.09272,1.0126,-3.71,-1.89,-3.43,1770369784.511764
0.189344,-0.092232,1.011136,-2.45,-0.14,-4.97,1770369784.519787
0.19032,-0.095648,1.01138,-2.45,-0.49,-3.29,1770369784.52778
0.192028,-0.094916,1.011868,-0.91,-0.49,-4.2,1770369784.535833
0.19764,-0.0854,1.016992,-2.87,0.07,-6.23,1770369784.543795
0.19642,-0.076616,1.01016,-2.66,-0.21,-5.11,1770369784.551784
0.195688,-0.07564,1.012356,-2.73,1.54,-4.13,1770369784.559794
0.2013,-0.082472,1.00772,-3.22,1.75,-2.66,1770369784.567783
0.192272,-0.074908,1.014552,-1.12,3.01,-5.11,1770369784.575785
0.189832,-0.072224,1.012844,-5.32,5.74,-3.43,1770369784.583793
0.18422,-0.074908,1.015772,-4.13,7.98,-5.46,1770369784.591783
0.17812,-0.0793,1.013332,-4.97,9.66,-4.34,1770369784.599798
0.1708,-0.081008,1.015772,-4.27,11.69,-0.14,1770369784.607784
0.160308,-0.083692,1.016504,-3.57,12.95,-3.64,1770369784.615809
0.147132,-0.08662,1.024068,-5.81,12.74,-0.28,1770369784.623775
0.140056,-0.082716,1.028704,-5.25,12.39,-3.64,1770369784.631794
0.128344,-0.082472,1.031144,-4.97,12.04,-1.4,1770369784.639838
0.122732,-0.084424,1.026996,-4.48,11.83,-1.54,1770369784.647802
0.116876,-0.080764,1.021872,-1.82,10.5,-1.05,1770369784.655822
0.11712,-0.077104,1.018212,-1.68,10.43,-4.13,1770369784.663838
0.117364,-0.075884,1.018456,0.49,9.17,-2.87,1770369784.671895
0.11956,-0.070516,1.020652,0.0,8.4,-4.06,1770369784.679935
0.127612,-0.068076,1.025532,2.24,7.0,-2.52,1770369784.687805
0.135908,-0.064904,1.033584,2.87,5.6,-2.73,1770369784.695786
0.138104,-0.059536,1.042124,3.5,5.32,-3.08,1770369784.703783
0.14152,-0.057584,1.042368,4.97,3.99,-2.94,1770369784.711814
0.142252,-0.057584,1.037732,2.31,3.5,-1.4,1770369784.719786
0.142252,-0.063928,1.037244,4.9,4.2,-0.84,1770369784.727784
0.143472,-0.063684,1.033584,5.11,2.52,-3.29,1770369784.735786
0.143716,-0.069052,1.029924,1.19,4.55,-1.96,1770369784.743786
0.1464,-0.068564,1.024556,3.22,3.78,-3.78,1770369784.751818
0.147132,-0.0732,1.02846,2.87,4.34,-1.26,1770369784.759803
0.150548,-0.078324,1.023824,3.36,3.64,-2.66,1770369784.767787
0.152012,-0.078324,1.019676,3.08,1.75,-0.91,1770369784.77583
0.150304,-0.078812,1.02236,4.34,2.17,1.75,1770369784.783762
0.146888,-0.076616,1.02358,3.01,2.52,-0.98,1770369784.791803
0.144204,-0.06832,1.025288,4.76,3.43,2.8,1770369784.799785
0.142496,-0.065148,1.024312,3.99,2.73,1.54,1770369784.80784
0.137372,-0.06466,1.024556,3.22,3.08,5.11,1770369784.815794
0.134932,-0.06588,1.024556,3.99,3.71,4.27,1770369784.823792
0.131516,-0.070028,1.031632,1.68,3.64,6.16,1770369784.831787
0.127368,-0.069784,1.04066,3.29,4.06,6.23,1770369784.839931
0.117608,-0.069296,1.049688,3.43,5.39,8.54,1770369784.847781
0.110776,-0.062952,1.05164,4.97,5.6,6.93,1770369784.855794
0.10004,-0.061244,1.04554,1.89,5.74,7.49,1770369784.863805
0.095404,-0.055388,1.042856,4.13,4.41,7.49,1770369784.871807
0.095648,-0.051484,1.042368,2.8,1.54,7.49,1770369784.879786
0.098576,-0.044652,1.033584,3.43,-0.21,7.28,1770369784.887776
0.10614,-0.040016,1.02968,2.1,-4.27,5.39,1770369784.895842
0.113704,-0.03782,1.026752,0.42,-6.37,5.39,1770369784.904014
0.127368,-0.039284,1.026752,1.89,-8.19,4.2,1770369784.911782
0.141032,-0.039284,1.026508,0.63,-9.45,5.88,1770369784.919803
0.151768,-0.040992,1.017968,3.78,-9.1,4.69,1770369784.927775
0.160552,-0.042212,1.010892,-0.56,-8.26,2.59,1770369784.935786
0.167872,-0.04514,1.00528,1.19,-6.23,2.66,1770369784.943825
0.1769,-0.054168,0.998936,0.91,-5.32,2.94,1770369784.951789
0.181292,-0.061244,1.0004,0.98,-2.31,0.28,1770369784.9601
0.183,-0.071004,0.999912,2.24,-1.26,3.64,1770369784.967838
0.179828,-0.07442,0.998936,2.52,0.84,2.73,1770369784.975784
0.173972,-0.078568,0.99796,1.19,4.97,2.17,1770369784.983768
0.168604,-0.07808,1.002352,3.29,4.97,2.24,1770369784.991824
0.162748,-0.084912,1.011136,1.54,7.49,3.85,1770369784.99979
0.152988,-0.088084,1.014796,2.1,7.7,3.08,1770369785.007784
0.144448,-0.089304,1.020408,3.01,10.15,3.64,1770369785.015783
0.137128,-0.0915,1.025532,2.73,9.31,3.99,1770369785.023769
0.130296,-0.089304,1.031388,3.08,7.49,3.78,1770369785.0318
0.124928,-0.089792,1.027728,3.29,7.21,3.92,1770369785.039807
0.117608,-0.08906,1.02846,4.41,6.86,5.25,1770369785.047786
0.118584,-0.08784,1.028216,3.85,4.55,3.22,1770369785.055845
0.118584,-0.08662,1.029436,2.45,2.73,3.36,1770369785.064138
0.119804,-0.087352,1.030656,2.59,2.24,4.2,1770369785.071905
0.121024,-0.088572,1.028704,1.47,2.31,6.3,1770369785.079816
0.122976,-0.088816,1.025532,0.91,0.84,5.81,1770369785.087777
0.122732,-0.08418,1.027484,2.45,0.35,6.37,1770369785.095798
0.125904,-0.077592,1.026996,-1.47,1.12,3.92,1770369785.103818
0.127368,-0.074908,1.02114,2.66,1.19,4.69,1770369785.111785
0.12444,-0.076372,1.019432,0.63,1.33,7.35,1770369785.119797
0.127612,-0.078568,1.0187,0.98,1.05,7.49,1770369785.127894
0.125172,-0.076372,1.021628,1.33,1.4,6.58,1770369785.135781
0.124928,-0.075396,1.024312,1.19,3.22,4.34,1770369785.143782
0.124684,-0.071492,1.018944,3.36,1.89,3.92,1770369785.151812
0.12566,-0.077348,1.018944,1.75,1.61,3.57,1770369785.159817
0.121512,-0.075152,1.017724,4.69,-0.35,3.43,1770369785.167959
0.123952,-0.080032,1.01748,3.78,0.42,3.71,1770369785.175781
0.125172,-0.083936,1.019188,1.75,1.12,3.64,1770369785.183762
0.12322,-0.09028,1.014064,4.9,-0.49,4.13,1770369785.191787
0.127124,-0.089792,1.014796,4.97,-0.7,3.92,1770369785.199788
0.126148,-0.09028,1.017724,5.46,-1.26,5.46,1770369785.207811
0.124196,-0.087596,1.02114,6.65,-1.47,4.55,1770369785.21592
0.129564,-0.084912,1.026996,3.36,-0.91,2.52,1770369785.223778
0.131516,-0.079544,1.032364,5.46,0.0,3.36,1770369785.231783
0.134688,-0.074176,1.035292,4.55,-0.91,4.9,1770369785.239779
0.133224,-0.071736,1.036512,4.62,1.75,2.45,1770369785.24778
0.13054,-0.0671,1.032852,3.99,0.77,4.13,1770369785.255894
0.123708,-0.065636,1.0248,4.2,1.4,0.77,1770369785.263784
0.119316,-0.066368,1.01626,6.02,-0.49,6.16,1770369785.271791
0.116632,-0.063928,1.02114,3.64,-0.77,0.84,1770369785.279896
0.113948,-0.057828,1.026264,5.88,-1.12,5.81,1770369785.287776
0.118096,-0.053436,1.032852,4.9,-2.03,2.45,1770369785.295788
0.117608,-0.046848,1.038464,3.22,-1.05,3.08,1770369785.30378
0.119316,-0.040992,1.040416,6.23,-0.35,2.45,1770369785.311812
0.11712,-0.03294,1.044076,4.06,-0.35,4.41,1770369785.319791
0.12078,-0.028304,1.047736,4.97,-1.4,3.36,1770369785.327966
0.119316,-0.02806,1.047248,3.01,-1.33,0.63,1770369785.335762
0.119316,-0.026352,1.047736,3.08,-2.8,1.96,1770369785.343782
0.125904,-0.027328,1.03944,0.77,-4.83,0.28,1770369785.351783
0.1281,-0.03172,1.034804,2.59,-4.9,3.22,1770369785.359789
0.132248,-0.0366,1.030412,1.19,-6.58,2.73,1770369785.36779
0.134932,-0.037332,1.024556,1.33,-6.58,5.11,1770369785.375875
0.138836,-0.040992,1.026752,1.68,-4.9,3.85,1770369785.383804
0.140544,-0.040504,1.028704,0.7,-5.04,1.54,1770369785.391793
0.139324,-0.040992,1.028216,0.63,-3.43,3.71,1770369785.399789
0.143716,-0.039772,1.030412,3.57,-3.57,3.57,1770369785.407807
0.13664,-0.038552,1.030656,1.96,-3.64,2.03,1770369785.415818
0.13664,-0.042456,1.028948,-1.26,-3.01,1.75,1770369785.42387
0.134932,-0.048556,1.031144,0.21,-2.59,3.29,1770369785.431814
0.136884,-0.059536,1.021628,0.35,-2.8,2.45,1770369785.439793
0.133224,-0.067588,1.016992,0.7,-3.22,3.08,1770369785.447785
0.13054,-0.072956,1.016504,1.19,-3.15,0.98,1770369785.455808
0.130052,-0.070272,1.017724,1.26,-2.17,-0.28,1770369785.463815
0.129564,-0.06954,1.018456,1.12,-2.8,0.42,1770369785.471775
0.128832,-0.071492,1.021384,0.77,-3.36,0.21,1770369785.479824
0.134932,-0.06832,1.028948,1.68,-2.1,0.21,1770369785.487903
0.13542,-0.066124,1.02724,0.42,-1.26,-0.28,1770369785.495814
0.137372,-0.065636,1.021384,-1.68,-1.05,-1.05,1770369785.503784
0.138348,-0.064904,1.016016,0.0,-1.12,-2.38,1770369785.51179
0.140544,-0.064172,1.0187,-0.84,-1.4,-1.47,1770369785.519809
0.142252,-0.06344,1.020164,0.07,-1.54,-0.7,1770369785.527792
0.143228,-0.060756,1.020408,-1.19,-0.56,-0.28,1770369785.53577
0.144204,-0.060024,1.01992,-0.98,0.21,-3.29,1770369785.543813
0.142496,-0.057584,1.022116,-0.21,1.82,0.07,1770369785.551793
0.136152,-0.057828,1.021628,-2.17,2.52,-0.14,1770369785.559808
0.13786,-0.053192,1.021872,0.98,1.96,-0.63,1770369785.56784
0.132004,-0.058804,1.020896,0.0,2.52,0.07,1770369785.57579
0.132004,-0.061976,1.024068,-1.68,0.84,-2.31,1770369785.583777
0.127368,-0.059536,1.0248,-0.91,1.75,-1.05,1770369785.591793
0.125416,-0.065636,1.022848,-0.56,1.12,0.21,1770369785.599792
0.127368,-0.066124,1.021628,-0.63,0.42,-0.91,1770369785.607842
0.133712,-0.066368,1.0187,-1.33,-0.84,-1.05,1770369785.615794
0.132248,-0.064416,1.0187,-2.03,-0.14,-2.03,1770369785.623775
0.13542,-0.058316,1.02236,0.21,-0.77,-1.82,1770369785.631817
0.136884,-0.05612,1.022604,-1.89,-0.14,-1.61,1770369785.639797
0.138104,-0.048556,1.0248,-0.98,-0.35,0.49,1770369785.647791
0.138348,-0.04636,1.027972,-1.26,0.21,-0.91,1770369785.655804
0.139812,-0.045872,1.033096,-2.1,0.63,0.49,1770369785.663916
0.139324,-0.045628,1.037488,-0.98,0.98,-0.56,1770369785.671793
0.133956,-0.043188,1.036756,-0.7,0.63,1.12,1770369785.679783
0.130052,-0.044408,1.033828,-0.77,1.4,0.07,1770369785.687784
0.125904,-0.042944,1.032608,-1.33,0.21,1.33,1770369785.695778
0.123952,-0.049044,1.033096,-2.45,0.21,-0.14,1770369785.703898
0.126148,-0.050996,1.03578,-1.47,1.33,-0.07,1770369785.711765
0.123464,-0.060512,1.037244,-1.33,0.28,-0.98,1770369785.719794
0.121756,-0.06588,1.037244,-0.91,-1.68,0.98,1770369785.727784
0.124196,-0.063928,1.030656,-0.35,-0.98,-1.12,1770369785.735781
0.127368,-0.062708,1.026508,0.21,-0.56,-1.61,1770369785.743893
0.127612,-0.062464,1.027728,1.4,-1.33,-0.84,1770369785.751764
0.130296,-0.057096,1.030412,-0.63,-0.91,-3.85,1770369785.759787
0.13176,-0.0549,1.030168,0.21,-0.35,0.42,1770369785.767788
0.135664,-0.05368,1.02846,-0.49,-1.12,-1.82,1770369785.775789
0.132248,-0.055388,1.02724,-2.59,-0.28,-3.85,1770369785.783773
0.135664,-0.058072,1.026508,-0.42,-0.35,-1.19,1770369785.791833
0.132492,-0.060268,1.026996,-1.68,-0.14,-0.56,1770369785.799798
0.131516,-0.06222,1.025288,-1.12,-0.35,-0.91,1770369785.807786
0.130784,-0.063684,1.02358,0.56,0.07,-3.64,1770369785.815781
0.133224,-0.063196,1.025288,-1.75,-1.26,0.28,1770369785.823807
0.1342,-0.0671,1.025288,-1.12,0.56,-3.64,1770369785.831876
0.134688,-0.064416,1.027972,-0.77,-0.56,-1.26,1770369785.839777
0.133224,-0.067832,1.029924,-0.21,-1.82,-0.49,1770369785.847785
0.135176,-0.06832,1.02846,-0.42,-1.68,-1.68,1770369785.855783
0.13298,-0.063196,1.026752,-0.91,-0.14,-1.96,1770369785.863904
0.134444,-0.06222,1.02602,-0.77,-1.33,-2.59,1770369785.871775
0.134932,-0.058804,1.029192,-2.31,-0.42,-0.14,1770369785.87979
0.132492,-0.055144,1.02968,-0.77,-0.84,-2.52,1770369785.88777
0.13176,-0.055632,1.02846,-1.47,-0.7,0.49,1770369785.895881
0.12932,-0.058804,1.02236,1.47,-0.35,-0.7,1770369785.904358
0.126148,-0.056852,1.02236,-1.12,0.07,-0.63,1770369785.91179
0.128344,-0.060024,1.01992,-0.21,-0.56,-1.61,1770369785.919782
0.126636,-0.059048,1.016504,-2.24,1.05,0.21,1770369785.927813
0.126392,-0.05856,1.017968,0.35,0.42,-3.5,1770369785.935934
0.127368,-0.060512,1.019676,-1.19,0.98,0.98,1770369785.943765
0.128832,-0.057828,1.028704,0.14,0.84,-0.63,1770369785.951788
0.124684,-0.0549,1.033828,0.91,0.56,-1.05,1770369785.959783
0.127612,-0.051972,1.036756,0.42,0.21,0.84,1770369785.967808
0.126148,-0.053436,1.036756,-0.42,-0.7,-1.26,1770369785.975789
0.126636,-0.051972,1.035292,-2.45,-0.21,-1.75,1770369785.983798
0.127124,-0.053436,1.031876,-0.42,-1.33,-2.31,1770369785.99181
0.128832,-0.059048,1.031388,-2.87,-1.82,-1.82,1770369785.999797
0.128588,-0.061488,1.027728,0.35,-0.35,-0.7,1770369786.007794
0.13054,-0.061244,1.029192,-1.75,-1.89,-1.12,1770369786.015855
0.131516,-0.063928,1.02724,-2.03,-1.47,-0.63,1770369786.02378
0.130052,-0.066612,1.024068,0.14,-0.7,-1.96,1770369786.031793
0.135908,-0.066612,1.029192,-0.56,-1.68,-0.07,1770369786.039809
0.13298,-0.066612,1.026752,0.56,-0.35,-0.35,1770369786.047842
0.131028,-0.066368,1.028704,-0.56,-0.35,-1.26,1770369786.055797
0.134444,-0.063196,1.027728,1.33,0.21,-2.73,1770369786.064088
0.134444,-0.062464,1.026752,-0.35,-0.21,0.84,1770369786.072191
0.13298,-0.059536,1.02724,-0.91,1.19,-1.68,1770369786.079811
0.13298,-0.060512,1.025044,0.35,1.54,2.31,1770369786.087779
0.131272,-0.061732,1.027728,-1.54,1.19,2.17,1770369786.095836
0.131272,-0.055876,1.0248,0.35,0.98,-1.4,1770369786.103832
0.130784,-0.058072,1.025776,-2.24,0.42,0.77,1770369786.111789
0.127612,-0.059048,1.02358,-0.49,0.84,-0.56,1770369786.119763
0.132004,-0.064172,1.026996,0.7,1.05,3.22,1770369786.127776
0.131272,-0.063928,1.032364,-0.63,0.56,-0.91,1770369786.135832
0.129076,-0.061,1.036512,-0.98,1.54,2.31,1770369786.143783
0.128588,-0.066368,1.033096,-0.14,1.54,-1.47,1770369786.15178
0.127124,-0.064416,1.030412,1.54,2.31,-0.28,1770369786.159803
0.125904,-0.063684,1.030412,0.77,3.08,0.63,1770369786.167795
0.128344,-0.06466,1.033096,0.35,2.17,0.21,1770369786.175761
0.128832,-0.061,1.030168,-2.24,1.33,2.24,1770369786.183777
0.126636,-0.058804,1.036268,-0.07,2.73,-0.14,1770369786.191808
0.124196,-0.059536,1.040904,0.0,2.1,2.59,1770369786.199852
0.125416,-0.057828,1.039684,-0.21,1.96,3.78,1770369786.20779
0.121756,-0.058316,1.0431,-1.19,2.17,2.45,1770369786.215779
0.118828,-0.059536,1.040172,-2.24,1.54,2.24,1770369786.223777
0.113948,-0.059048,1.034316,-1.26,1.96,2.52,1770369786.231915
0.112728,-0.06588,1.027728,-4.34,1.75,1.26,1770369786.23978
0.11224,-0.066612,1.022116,-1.12,1.82,3.08,1770369786.247777
0.108336,-0.073444,1.0248,-0.91,0.21,-0.42,1770369786.255781
0.10614,-0.070028,1.02602,-2.52,1.54,3.64,1770369786.263797
0.104188,-0.070516,1.027728,0.35,-0.14,0.91,1770369786.271767
0.105896,-0.070516,1.027728,-0.21,-0.56,2.66,1770369786.2798
0.108092,-0.068076,1.026264,1.33,0.42,2.66,1770369786.287821
0.107848,-0.065636,1.029436,2.87,-1.47,2.1,1770369786.295789
0.110776,-0.066368,1.028216,-0.91,-0.7,1.75,1770369786.303783
0.113948,-0.060512,1.029192,2.66,-1.33,-0.28,1770369786.311784
0.118828,-0.057828,1.032852,1.33,-1.47,0.84,1770369786.319779
0.122244,-0.05978,1.030168,1.68,-1.47,2.87,1770369786.327789
0.120292,-0.057828,1.031388,0.56,-1.4,1.4,1770369786.335781
0.117852,-0.061,1.032364,-0.14,-3.36,3.22,1770369786.343773
0.120536,-0.063196,1.037,-0.35,-3.99,1.96,1770369786.351854
0.118828,-0.068808,1.035048,-1.89,-2.59,1.33,1770369786.359776
0.11468,-0.073932,1.028216,-0.56,-2.66,1.61,1770369786.367788
0.110288,-0.069784,1.01992,-0.77,-3.43,4.48,1770369786.375768
0.106628,-0.071736,1.0126,0.56,-3.22,3.36,1770369786.383813
0.103212,-0.066612,1.007476,-0.21,-5.04,4.27,1770369786.391798
0.103456,-0.064172,1.008208,0.0,-4.97,2.31,1770369786.399815
0.104432,-0.062464,1.013088,2.31,-7.0,5.04,1770369786.407815
0.106872,-0.06832,1.017236,2.31,-6.37,2.66,1770369786.415791
0.108336,-0.06832,1.022604,-0.63,-6.23,1.54,1770369786.423805
0.111996,-0.065148,1.023336,1.68,-5.25,0.63,1770369786.431939
0.118096,-0.069296,1.024068,1.68,-5.18,1.89,1770369786.439782
0.125416,-0.070516,1.02114,2.31,-4.55,1.19,1770369786.447781
0.132736,-0.074664,1.018944,2.31,-4.97,-1.19,1770369786.455768
0.142496,-0.077348,1.02358,3.92,-6.09,-2.73,1770369786.464092
0.149572,-0.076128,1.025288,2.45,-4.97,-0.14,1770369786.47193
0.154452,-0.075396,1.026996,2.8,-3.99,-2.38,1770369786.479781
0.159332,-0.07198,1.02846,4.13,-2.8,-4.27,1770369786.487774
0.15982,-0.06954,1.027728,4.76,-3.22,-2.73,1770369786.495783
0.159088,-0.064904,1.024068,3.01,-0.84,-2.31,1770369786.503809
0.155916,-0.060268,1.02358,5.11,-0.35,-0.28,1770369786.511777
0.15006,-0.060512,1.022116,2.45,-0.14,-0.91,1770369786.519795
0.142252,-0.062952,1.020408,3.43,0.42,1.47,1770369786.527784
0.136884,-0.065148,1.0187,3.22,0.0,-0.7,1770369786.535783
0.1281,-0.064904,1.012844,0.91,0.0,2.45,1770369786.543868
0.121512,-0.062708,1.01504,2.66,-0.56,0.42,1770369786.551796
0.115168,-0.066368,1.011136,2.45,-2.66,1.54,1770369786.559783
0.111996,-0.066368,1.008696,2.24,-3.64,1.4,1770369786.567802
0.1159,-0.0671,1.013576,2.87,-4.34,-0.49,1770369786.575783
0.114924,-0.067344,1.02236,0.91,-4.34,2.8,1770369786.583809
0.116876,-0.064416,1.026752,2.87,-4.69,0.0,1770369786.59179
0.117608,-0.056608,1.032852,3.99,-4.69,-0.14,1770369786.599799
0.118096,-0.05124,1.034072,4.06,-4.34,2.87,1770369786.607786
0.127612,-0.047092,1.036024,4.34,-5.46,0.42,1770369786.615851
0.129564,-0.043676,1.035292,1.54,-4.76,2.31,1770369786.623775
0.132004,-0.038552,1.037732,3.01,-6.3,-2.38,1770369786.63181
0.136884,-0.035624,1.047004,2.59,-4.9,-0.49,1770369786.639786
0.136396,-0.029768,1.048956,2.59,-4.13,-0.84,1770369786.647837
0.140544,-0.031232,1.052372,0.56,-4.76,-1.12,1770369786.656159
0.142984,-0.03416,1.048224,-1.47,-4.69,-3.29,1770369786.663925
0.1464,-0.037576,1.044808,1.4,-4.69,-2.73,1770369786.671769
0.144936,-0.04026,1.041636,-0.07,-5.32,-0.84,1770369786.679808
0.148108,-0.04514,1.036024,0.14,-4.2,-0.91,1770369786.687905
0.145424,-0.05124,1.035536,1.26,-5.32,-0.77,1770369786.695785
0.146156,-0.055144,1.031876,-1.75,-4.13,0.21,1770369786.703788
0.141764,-0.055632,1.026752,-1.33,-4.34,0.42,1770369786.71179
0.143716,-0.062952,1.02358,-1.12,-3.64,-1.4,1770369786.719852
0.142496,-0.064904,1.02358,-0.63,-3.64,2.1,1770369786.727789
0.142984,-0.069296,1.016992,-1.54,-4.69,-2.17,1770369786.735787
0.143228,-0.071492,1.01748,-3.08,-2.66,-0.63,1770369786.743814
0.143716,-0.071248,1.018944,-0.56,-3.57,-1.05,1770369786.751887
0.151036,-0.070272,1.018456,-0.91,-3.64,0.07,1770369786.759788
0.152256,-0.06954,1.01382,0.0,-2.17,1.12,1770369786.767811
0.157624,-0.063928,1.012356,1.12,-3.01,-1.82,1770369786.7758
0.16104,-0.061976,1.01626,-0.14,-2.1,-2.31,1770369786.783787
0.166164,-0.056364,1.015284,2.45,-2.24,-2.52,1770369786.791791
0.170312,-0.052948,1.022116,0.77,-1.26,0.07,1770369786.799835
0.170556,-0.047824,1.024068,2.1,-1.12,-1.26,1770369786.807944
0.172508,-0.046848,1.025776,-0.35,0.0,-3.5,1770369786.815791
0.17324,-0.046604,1.0248,0.42,0.63,-1.26,1770369786.823876
0.170556,-0.044896,1.026264,0.14,2.73,-4.06,1770369786.83183
0.167384,-0.04758,1.022116,-1.26,2.59,-3.5,1770369786.839787
0.16348,-0.051972,1.024312,0.63,2.94,-0.7,1770369786.847788
0.159332,-0.052216,1.02602,-0.07,4.41,-2.38,1770369786.85576
0.15128,-0.05368,1.02968,-2.59,4.62,-2.52,1770369786.863868
0.147376,-0.056608,1.029192,0.14,4.48,-3.15,1770369786.871781
0.139324,-0.058316,1.026508,-2.59,3.78,-3.29,1770369786.879793
0.133712,-0.060756,1.02846,-0.84,5.11,-1.19,1770369786.887777
0.13298,-0.066612,1.027484,0.63,2.52,-0.21,1770369786.895787
0.130296,-0.064172,1.02846,-1.68,1.75,-2.87,1770369786.90385
0.130296,-0.061244,1.025288,0.91,2.17,-0.84,1770369786.911817
0.130296,-0.059536,1.026996,-0.56,0.84,-2.45,1770369786.919788
0.131516,-0.05856,1.023824,0.77,0.28,-2.8,1770369786.927787
0.1342,-0.056852,1.018456,0.14,0.28,-3.64,1770369786.935949
0.137372,-0.058316,1.018456,-0.91,2.17,-3.08,1770369786.943776
0.141276,-0.056852,1.019676,0.21,-0.21,-1.61,1770369786.951783
0.13908,-0.053436,1.0187,0.84,0.98,-3.08,1770369786.959767
0.138104,-0.053924,1.021872,2.03,0.07,-2.17,1770369786.967957
0.13908,-0.051728,1.024312,-0.35,0.07,-1.4,1770369786.975791
0.137128,-0.050752,1.026508,-0.14,0.21,-2.38,1770369786.983788
0.137128,-0.052948,1.026996,1.47,0.28,-2.94,1770369786.99179
0.132004,-0.052216,1.025288,-0.21,-0.21,0.42,1770369786.999787
0.131272,-0.053436,1.026996,0.21,-0.35,-3.08,1770369787.007876
0.129808,-0.054412,1.02724,2.03,-1.12,0.21,1770369787.015927
0.128344,-0.053192,1.02724,0.77,-1.75,-0.63,1770369787.023788
0.134932,-0.05124,1.028948,2.31,-3.15,-2.31,1770369787.031786
0.132004,-0.050996,1.02968,1.26,-2.87,-1.05,1770369787.039787
0.13664,-0.04758,1.030168,2.45,-4.55,-0.84,1770369787.047813
0.14274,-0.049044,1.035292,1.75,-3.22,-2.31,1770369787.05594
0.143716,-0.045872,1.033096,2.59,-2.8,-4.41,1770369787.06411
0.142496,-0.043676,1.03578,2.45,-3.78,-0.49,1770369787.072173
0.141032,-0.038796,1.033584,0.56,-2.66,-2.94,1770369787.079809
0.14518,-0.041236,1.03456,2.1,-3.36,-1.4,1770369787.087791
0.148596,-0.037576,1.035048,0.91,-4.62,-0.63,1770369787.095791
0.146888,-0.03904,1.03334,-0.63,-3.29,-1.47,1770369787.10379
0.144448,-0.042944,1.036024,1.54,-3.78,-2.17,1770369787.11192
0.14762,-0.044896,1.033828,1.68,-1.68,-0.28,1770369787.119794
0.147864,-0.042456,1.036756,1.19,-0.35,-1.19,1770369787.127786
0.14884,-0.043676,1.037976,3.08,-2.31,-2.1,1770369787.135779
0.1464,-0.044896,1.034072,0.21,-1.54,1.33,1770369787.143797
0.148108,-0.04392,1.037732,1.54,-2.03,-1.47,1770369787.151777
0.150304,-0.04636,1.039684,0.07,-2.59,0.49,1770369787.159805
0.149816,-0.043432,1.03822,1.47,-1.75,-0.84,1770369787.167973
0.146644,-0.044408,1.041636,-1.47,-1.26,0.42,1770369787.175774
0.146156,-0.048068,1.03578,-4.48,-0.21,1.12,1770369787.183776
0.14274,-0.050752,1.03334,-2.31,0.42,-0.91,1770369787.191799
0.140056,-0.05246,1.029436,-2.8,-0.14,0.21,1770369787.199943
0.133712,-0.050508,1.029924,-2.52,-0.07,0.42,1770369787.207772
0.138348,-0.05124,1.031632,-1.75,-0.42,-2.17,1770369787.215787
0.132248,-0.05246,1.029436,-2.87,-1.33,-2.73,1770369787.223773
0.135908,-0.055876,1.02358,-0.42,-3.15,-1.96,1770369787.231774
0.14396,-0.055632,1.020164,-0.21,-4.41,-1.19,1770369787.239788
0.148352,-0.055876,1.01748,-0.14,-3.29,-1.33,1770369787.247881
0.15494,-0.058072,1.018456,2.31,-3.78,-2.03,1770369787.255786
0.161528,-0.05734,1.017724,-0.14,-2.8,-1.61,1770369787.263778
0.166164,-0.055876,1.015772,0.28,-2.45,-4.13,1770369787.271797
0.169824,-0.05734,1.01504,2.24,-1.33,-0.07,1770369787.279779
0.16714,-0.053924,1.017236,1.68,0.63,0.56,1770369787.287799
0.165676,-0.051728,1.0187,1.89,2.1,-0.49,1770369787.295811
0.162016,-0.051728,1.020408,-0.21,2.66,0.77,1770369787.303779
0.15494,-0.049288,1.020652,1.12,2.59,-3.22,1770369787.311776
0.153476,-0.048556,1.02236,0.98,3.64,-0.84,1770369787.319783
0.147864,-0.04758,1.022116,1.19,3.85,-0.42,1770369787.327842
0.141764,-0.045628,1.022116,0.56,3.43,-1.61,1770369787.335783
0.14152,-0.046604,1.021872,1.54,3.43,-1.19,1770369787.343775
0.138104,-0.045628,1.022116,0.21,2.87,-1.82,1770369787.35178
0.138836,-0.044408,1.023092,0.98,2.87,-1.26,1770369787.359777
0.136152,-0.047824,1.0248,0.35,2.59,-2.17,1770369787.367802
0.136396,-0.046848,1.023336,0.35,2.52,-2.03,1770369787.375812
0.136152,-0.048068,1.025044,0.56,1.89,2.24,1770369787.383915
0.133468,-0.048068,1.030412,-2.24,2.17,-2.87,1770369787.391787
0.13176,-0.050752,1.02846,0.56,1.96,1.54,1770369787.399782
0.13054,-0.049288,1.028948,0.07,1.4,-2.31,1770369787.408196
0.12932,-0.04514,1.02724,-0.7,1.75,-1.4,1770369787.415801
0.126148,-0.04514,1.030412,-0.84,1.19,0.28,1770369787.423786
0.126392,-0.0488,1.026508,-0.14,0.0,-2.59,1770369787.431784
0.123464,-0.048068,1.02602,-0.77,0.0,0.07,1770369787.439808
0.121512,-0.050264,1.023824,-0.77,-0.07,0.0,1770369787.447907
0.122976,-0.051728,1.024068,-1.68,-1.54,-1.4,1770369787.455789
0.122,-0.055144,1.02236,-1.82,-1.26,-1.96,1770369787.463782
0.12078,-0.058316,1.018212,-1.82,-0.91,-2.52,1770369787.471789
0.122976,-0.060756,1.023824,-1.19,-1.33,-1.26,1770369787.479856
0.127124,-0.061732,1.024312,-1.33,-2.31,-2.17,1770369787.487808
0.130052,-0.058316,1.025532,-2.59,-2.24,-1.26,1770369787.495823
0.13298,-0.057828,1.022604,-2.24,-2.17,-1.61,1770369787.503784
0.13664,-0.059048,1.019188,-1.89,-2.24,-4.76,1770369787.511781
0.137616,-0.056852,1.021628,-0.42,-2.87,-2.52,1770369787.519789
0.139568,-0.052704,1.020408,0.0,-4.41,-2.38,1770369787.527927
0.146888,-0.047092,1.025044,-1.12,-2.52,0.0,1770369787.535782
0.147864,-0.048068,1.02602,-2.94,-2.87,-3.99,1770369787.543782
0.149328,-0.045872,1.026508,0.14,-2.1,0.84,1770369787.551768
0.145668,-0.044408,1.027728,-2.38,-1.47,-5.74,1770369787.559903
0.149816,-0.040992,1.03212,0.42,-0.77,-4.41,1770369787.568127
0.1464,-0.04026,1.03334,-0.35,-1.12,-3.08,1770369787.575881
0.149328,-0.0427,1.036268,-3.15,-0.14,-1.82,1770369787.583811
0.147864,-0.040992,1.037,-0.77,-0.21,-2.94,1770369787.591789
0.147864,-0.04636,1.03212,-0.56,-0.7,-2.8,1770369787.599786
0.149816,-0.047824,1.0309,0.0,-1.12,0.98,1770369787.6078
0.152988,-0.04636,1.028216,0.42,-0.98,-6.44,1770369787.615881
0.155428,-0.05124,1.025532,-2.87,-1.19,0.21,1770369787.623769
0.152988,-0.049532,1.031144,-1.26,0.98,-3.22,1770369787.631789
0.151036,-0.05002,1.033584,-1.12,1.89,-2.38,1770369787.639803
0.145424,-0.05124,1.035292,-1.12,1.75,0.21,1770369787.647843
0.144936,-0.051728,1.033584,-0.56,2.1,-2.38,1770369787.65578
0.141764,-0.055876,1.035048,-3.92,2.17,-1.26,1770369787.663818
0.138348,-0.058316,1.03456,-1.33,2.31,-2.59,1770369787.671803
0.134932,-0.057584,1.03212,-3.22,2.24,-2.03,1770369787.679808
0.13664,-0.056852,1.031876,-0.42,1.26,-0.21,1770369787.6879
0.132492,-0.055144,1.032852,-2.66,1.19,-3.29,1770369787.695819
0.135176,-0.055388,1.029436,-3.43,1.61,-0.63,1770369787.703792
0.133712,-0.056608,1.026264,-1.96,1.96,-2.52,1770369787.711814
0.136152,-0.058072,1.024068,-1.89,2.66,-0.77,1770369787.719801
0.13908,-0.058072,1.02358,-1.33,1.61,1.26,1770369787.727818
0.139568,-0.05978,1.02846,-2.59,2.17,-2.03,1770369787.735827
0.140788,-0.057828,1.033096,-3.92,2.73,0.84,1770369787.743817
0.135908,-0.059292,1.030656,-1.89,3.43,-2.94,1770369787.751783
0.133224,-0.060756,1.036512,-2.87,3.15,0.42,1770369787.759804
0.132736,-0.059292,1.033096,-1.68,3.08,0.49,1770369787.76782
0.130296,-0.059048,1.035536,-0.77,2.87,-2.45,1770369787.775835
0.127612,-0.058804,1.033828,-2.45,2.73,-1.05,1770369787.783792
0.12566,-0.055144,1.031632,0.14,2.31,-2.52,1770369787.791789
0.125416,-0.056608,1.026264,-3.36,2.31,1.12,1770369787.799786
0.122976,-0.060024,1.023824,-0.21,2.17,-1.05,1770369787.807784
0.122732,-0.057584,1.023336,-0.77,0.98,0.42,1770369787.815862
0.12444,-0.059536,1.022604,-1.68,2.1,-0.35,1770369787.823815
0.124196,-0.061732,1.020652,-1.19,1.54,-0.07,1770369787.831797
0.123952,-0.059292,1.023824,-0.98,1.96,1.19,1770369787.83979
0.126636,-0.057828,1.0248,-0.7,2.66,0.84,1770369787.847903
0.128588,-0.061244,1.024068,-1.47,3.01,-0.84,1770369787.855782
0.124928,-0.061488,1.026996,-3.78,2.24,-0.28,1770369787.863784
0.12688,-0.059292,1.023092,-1.12,1.54,-1.68,1770369787.871789
0.125416,-0.058316,1.02846,-1.33,0.98,-0.28,1770369787.879785
0.121268,-0.060268,1.02724,-0.56,2.17,0.42,1770369787.887876
0.123708,-0.061,1.027972,-0.14,0.77,-2.17,1770369787.895797
0.120048,-0.05978,1.026752,-1.75,0.91,1.89,1770369787.903784
0.122,-0.058316,1.03212,-0.35,0.0,-2.8,1770369787.911817
0.118828,-0.057584,1.030168,-2.31,-0.63,0.56,1770369787.919787
0.11834,-0.058072,1.031388,0.84,0.14,0.77,1770369787.927796
0.121756,-0.056364,1.031144,-0.49,-0.49,-1.68,1770369787.935881
0.123952,-0.056852,1.028704,-0.77,-0.77,-1.4,1770369787.943814
0.12444,-0.057096,1.029924,0.14,-1.33,-1.4,1770369787.951784
0.124684,-0.058316,1.034072,-0.56,-1.33,-0.35,1770369787.959787
0.12566,-0.057584,1.033828,0.21,-1.89,0.35,1770369787.967871
0.119072,-0.061,1.032364,1.54,-1.19,-1.68,1770369787.975804
0.121512,-0.062464,1.034804,-2.8,-3.01,-0.35,1770369787.983771
0.117608,-0.061976,1.031388,0.77,-2.38,-3.08,1770369787.991789
0.118828,-0.057828,1.031388,1.26,-4.13,-0.49,1770369787.999896
0.120292,-0.05368,1.0248,1.12,-4.41,-1.75,1770369788.007808
0.118584,-0.050996,1.021628,0.63,-5.11,-3.15,1770369788.015779
0.11834,-0.049532,1.016504,-0.98,-5.53,-1.47,1770369788.023787
0.122,-0.054168,1.017724,-0.98,-5.11,-2.38,1770369788.031816
0.131028,-0.055632,1.01626,-1.19,-4.34,-0.63,1770369788.039864
0.136152,-0.056852,1.017968,3.01,-4.2,-1.05,1770369788.047784
0.138348,-0.055632,1.022848,0.07,-4.41,-1.05,1770369788.055784
0.1403,-0.056852,1.027728,0.49,-3.22,-3.64,1770369788.064106
0.144936,-0.05856,1.030412,0.7,-2.87,-1.96,1770369788.072066
0.146644,-0.06222,1.034072,0.21,-2.1,-2.52,1770369788.079923
0.142984,-0.062952,1.034072,0.98,-1.47,0.77,1770369788.087859
0.143228,-0.061244,1.034316,1.54,-0.77,-1.33,1770369788.095806
0.138836,-0.063196,1.034072,-1.89,-0.28,-0.84,1770369788.103784
0.13664,-0.06222,1.035048,2.31,-0.28,-1.61,1770369788.111788
0.129808,-0.059292,1.032852,0.56,0.21,-0.07,1770369788.119881
0.125904,-0.058316,1.033828,-0.84,-1.47,1.05,1770369788.12779
0.122732,-0.05856,1.033584,-0.42,-0.56,-2.87,1770369788.135788
0.11956,-0.056852,1.027972,-0.77,-1.12,-0.07,1770369788.143773
0.118096,-0.063684,1.026508,1.75,-0.56,-0.7,1770369788.151775
0.119804,-0.061732,1.023824,-0.35,-2.87,-2.24,1770369788.160066
0.11712,-0.066368,1.024068,1.68,-2.87,-0.56,1770369788.167792
0.119316,-0.066124,1.02602,1.12,-3.78,-2.03,1770369788.175811
0.119316,-0.065148,1.02602,0.77,-3.85,0.98,1770369788.183814
0.121024,-0.066124,1.028704,1.54,-3.99,-0.35,1770369788.191797
0.127124,-0.065392,1.02968,0.35,-4.41,-0.56,1770369788.199819
0.129808,-0.067344,1.03212,0.98,-3.08,2.1,1770369788.207777
0.13176,-0.069296,1.027728,1.54,-4.13,-2.03,1770369788.21578
0.137616,-0.07198,1.02724,-0.35,-3.99,2.8,1770369788.223795
0.131516,-0.07076,1.032608,1.33,-3.43,-1.4,1770369788.231856
0.13176,-0.064904,1.037,2.59,-2.59,3.99,1770369788.239776
0.129808,-0.060024,1.041636,1.33,-2.45,2.03,1770369788.24778
0.126148,-0.055876,1.04554,0.7,-2.38,3.5,1770369788.255785
0.126636,-0.060024,1.045296,0.91,-3.22,3.43,1770369788.263836
0.12566,-0.056364,1.046272,0.91,-3.43,4.2,1770369788.2718
0.123708,-0.054656,1.045052,1.19,-3.43,4.34,1770369788.279782
0.122976,-0.055144,1.041392,1.54,-4.97,5.74,1770369788.287806
0.123952,-0.057096,1.042124,-0.7,-6.3,3.99,1770369788.295762
0.12932,-0.058072,1.037732,0.7,-6.44,5.39,1770369788.303902
0.131272,-0.059292,1.032852,-0.42,-5.88,4.48,1770369788.311778
0.132248,-0.05978,1.03334,-0.77,-6.86,6.23,1770369788.319779
0.136396,-0.058804,1.033096,1.96,-4.97,5.81,1770369788.327803
0.137128,-0.057828,1.034316,-1.19,-4.2,5.04,1770369788.335856
0.13664,-0.052704,1.02968,0.35,-3.22,6.3,1770369788.343789
0.138104,-0.050752,1.028704,0.56,-2.8,5.67,1770369788.351767
0.131272,-0.050508,1.030168,-0.35,-1.75,8.26,1770369788.359792
0.127856,-0.05246,1.027728,-1.19,-1.68,7.14,1770369788.367806
0.12322,-0.0488,1.019188,-1.47,-2.59,10.85,1770369788.375788
0.125904,-0.05612,1.020408,-2.03,-2.8,8.33,1770369788.383836
0.121512,-0.056364,1.014552,-0.98,-3.01,8.54,1770369788.391774
0.12322,-0.06222,1.010892,-2.1,-3.29,9.1,1770369788.399792
0.127124,-0.066856,1.01382,-0.35,-2.66,7.84,1770369788.407791
0.132248,-0.066124,1.0126,-1.47,-3.01,7.84,1770369788.415843
0.135664,-0.072468,1.010648,-2.66,-3.64,5.81,1770369788.423815
0.139812,-0.075152,1.010648,0.21,-3.01,4.13,1770369788.431807
0.141032,-0.074176,1.012356,0.0,-2.87,5.81,1770369788.439785
0.147132,-0.071248,1.012356,2.1,-1.54,5.39,1770369788.44778
0.1525,-0.067344,1.011624,1.68,-1.89,2.52,1770369788.455784
0.155428,-0.067344,1.012844,0.91,-0.98,1.61,1770369788.463923
0.162992,-0.070272,1.014308,1.96,-1.96,1.96,1770369788.471991
0.169824,-0.066124,1.01748,0.63,-1.47,2.1,1770369788.479786
0.17324,-0.07076,1.018212,1.19,-0.35,-0.35,1770369788.48787
0.173728,-0.065392,1.019676,3.36,0.77,0.42,1770369788.495781
0.172752,-0.065148,1.018456,2.03,0.7,1.47,1770369788.50379
0.17934,-0.067588,1.021872,3.36,1.54,-1.47,1770369788.511785
0.164456,-0.060024,1.014308,0.0,4.27,-1.33,1770369788.519783
0.167384,-0.062708,1.020408,0.98,4.83,-0.56,1770369788.527878
0.168116,-0.064172,1.026264,1.82,6.3,-1.4,1770369788.535817
0.163968,-0.063196,1.026508,-0.56,7.42,-1.47,1770369788.543784
0.15494,-0.059048,1.021384,1.19,7.07,-4.06,1770369788.551778
0.146644,-0.060512,1.024068,-2.1,7.77,0.56,1770369788.559807
0.137128,-0.055632,1.025044,0.21,8.4,-1.61,1770369788.567784
0.1403,-0.05978,1.027728,0.35,7.21,0.0,1770369788.575804
0.126148,-0.059048,1.02602,-0.56,5.53,-0.14,1770369788.583801
0.122488,-0.067832,1.026752,-1.33,4.27,-0.56,1770369788.591773
0.1159,-0.056852,1.027484,-0.07,4.06,0.42,1770369788.599817
0.118096,-0.060512,1.033584,0.77,4.55,0.28,1770369788.607889
0.109312,-0.057584,1.037732,0.35,3.85,-0.49,1770369788.615905
0.103456,-0.052704,1.03822,-0.42,1.75,0.84,1770369788.623765
0.098576,-0.0549,1.037488,0.56,-1.12,-0.35,1770369788.63179
0.096136,-0.054412,1.042856,1.89,-1.54,0.56,1770369788.63979
0.09516,-0.044164,1.0431,1.47,-3.78,2.45,1770369788.647898
0.097844,-0.047092,1.042856,0.56,-5.67,3.01,1770369788.655777
0.100284,-0.050996,1.042612,-1.19,-6.51,-0.63,1770369788.663846
0.103456,-0.05368,1.032852,0.0,-7.28,1.19,1770369788.671801
0.105652,-0.054656,1.0309,-0.21,-8.33,0.21,1770369788.679788
0.1159,-0.057096,1.028216,1.75,-8.05,2.45,1770369788.687788
0.117364,-0.057828,1.031144,2.1,-8.4,0.28,1770369788.695775
0.121512,-0.054412,1.032608,3.22,-10.29,1.33,1770369788.703809
0.127612,-0.05246,1.037732,2.24,-10.99,-0.07,1770369788.711788
0.131028,-0.050264,1.036024,2.03,-10.43,-0.91,1770369788.719799
0.136396,-0.045628,1.036512,2.1,-11.97,-2.38,1770369788.727795
0.146156,-0.049044,1.035536,2.66,-12.67,-1.26,1770369788.735791
0.15006,-0.052704,1.02846,0.56,-12.53,-2.52,1770369788.743788
0.159576,-0.058316,1.023336,0.14,-13.65,-3.99,1770369788.751882
0.168848,-0.06466,1.021872,0.21,-13.44,-2.38,1770369788.759791
0.173972,-0.06588,1.020896,-0.14,-11.41,-3.92,1770369788.767789
0.183488,-0.059536,1.020896,0.14,-11.55,-1.96,1770369788.775799
0.19398,-0.051728,1.027972,-1.19,-8.68,-6.02,1770369788.783839
0.193492,-0.049532,1.02602,-0.35,-6.58,-3.71,1770369788.791807
0.19642,-0.048068,1.029192,-1.75,-4.76,-2.52,1770369788.799799
0.199348,-0.045628,1.031876,-0.77,-4.41,-3.15,1770369788.807795
0.195444,-0.042944,1.029436,-2.1,-2.24,-3.64,1770369788.815801
0.19398,-0.040504,1.025776,-2.31,-0.14,-5.11,1770369788.823916
0.194224,-0.037088,1.025532,-2.38,1.68,-3.85,1770369788.831804
0.19154,-0.039528,1.025532,-3.15,2.38,-5.53,1770369788.839788
0.183976,-0.041236,1.027484,-2.87,1.82,-5.81,1770369788.847829
0.183488,-0.040992,1.029192,-2.87,1.33,-7.21,1770369788.85586
0.179584,-0.044896,1.02846,-5.6,3.01,-6.86,1770369788.863777
0.177632,-0.048068,1.02968,-2.31,3.01,-9.1,1770369788.87207
0.17812,-0.050264,1.024312,-2.66,2.17,-7.77,1770369788.879796
0.180316,-0.054656,1.020164,-0.91,2.73,-7.07,1770369788.887793
0.177144,-0.058804,1.017968,-1.26,3.64,-6.86,1770369788.895765
0.175192,-0.060512,1.01504,-1.82,5.39,-9.1,1770369788.903789
0.17202,-0.060268,1.006256,-0.63,5.18,-6.86,1770369788.911962
0.169336,-0.065636,1.007964,1.75,6.09,-9.38,1770369788.919783
0.1647,-0.067344,1.01138,2.31,7.42,-4.97,1770369788.927825
0.161528,-0.067588,1.018212,4.13,7.14,-9.73,1770369788.935797
0.148352,-0.064172,1.023336,0.91,7.14,-6.65,1770369788.943784
0.14152,-0.063928,1.01992,1.33,7.63,-7.21,1770369788.951783
0.132492,-0.073688,1.023824,1.75,5.88,-7.14,1770369788.959785
0.126392,-0.075152,1.025532,2.87,4.62,-5.18,1770369788.967862
0.122,-0.08052,1.018212,-0.21,2.73,-4.76,1770369788.975792
0.119804,-0.077104,1.014796,-1.12,1.82,-5.46,1770369788.98381
0.120536,-0.074908,1.01382,0.98,1.54,-2.31,1770369788.99196
0.117608,-0.06832,1.017968,-0.63,2.73,-1.26,1770369788.999778
0.115168,-0.061488,1.020164,0.35,2.45,-1.4,1770369789.007778
0.113948,-0.057828,1.018944,-0.14,1.68,-2.03,1770369789.015796
0.110776,-0.058072,1.015284,-3.01,0.77,-1.75,1770369789.023887
0.105652,-0.058072,1.01626,-0.98,1.75,-0.35,1770369789.03184
0.103456,-0.060512,1.021384,-1.19,0.21,1.33,1770369789.03979
0.09882,-0.066612,1.022848,0.0,-0.14,0.84,1770369789.047808
0.096136,-0.065148,1.021628,-0.7,-1.68,0.63,1770369789.055933
0.093208,-0.073688,1.01992,-0.77,-3.01,-0.49,1770369789.064072
0.08906,-0.079544,1.01748,0.7,-3.5,2.66,1770369789.071888
0.090768,-0.083936,1.01138,1.12,-3.92,1.26,1770369789.079811
0.0976,-0.08784,1.004548,1.54,-6.09,4.9,1770369789.087827
0.094916,-0.085644,1.004548,2.8,-7.28,3.01,1770369789.095771
0.097356,-0.078812,1.013088,1.68,-9.31,4.9,1770369789.103782
0.106872,-0.07198,1.02236,3.57,-11.06,3.64,1770369789.111789
0.115412,-0.060512,1.0309,2.45,-13.3,4.13,1770369789.119795
0.122244,-0.051484,1.037244,4.9,-14.21,5.25,1770369789.127784
0.137616,-0.040748,1.044564,3.99,-15.26,5.6,1770369789.135785
0.149572,-0.028304,1.055544,4.9,-15.82,6.86,1770369789.143813
0.16348,-0.020496,1.06628,3.57,-16.52,4.83,1770369789.151783
0.172508,-0.001708,1.07116,3.29,-16.17,6.86,1770369789.159781
0.187148,0.017568,1.074332,3.78,-15.96,6.93,1770369789.167803
0.198372,0.024888,1.087508,3.36,-14.28,7.28,1770369789.175822
0.205936,0.04392,1.084092,-0.21,-13.72,8.33,1770369789.183874
0.214964,0.058072,1.091656,-1.12,-12.18,7.77,1770369789.191768
0.220576,0.070272,1.084824,-3.57,-10.08,8.4,1770369789.199782
0.219112,0.076616,1.059936,-7.14,-9.24,11.69,1770369789.20778
0.223504,0.062952,1.047004,-8.96,-6.44,8.4,1770369789.215784
0.223748,0.045872,1.019432,-10.01,-3.64,8.47,1770369789.223844
0.22814,0.02074,1.003328,-7.35,-1.12,5.11,1770369789.231779
0.230092,-0.004148,0.99064,-7.91,2.52,6.37,1770369789.239785
0.228384,-0.023668,0.983076,-3.08,4.69,4.9,1770369789.247778
0.227896,-0.046604,0.976976,-2.59,9.03,0.63,1770369789.255836
0.228384,-0.066612,0.975268,-2.03,12.25,1.05,1770369789.263784
0.225456,-0.086864,0.97722,0.35,15.12,-1.61,1770369789.271778
0.21472,-0.097356,0.974292,1.12,16.030001,-3.99,1770369789.279778
0.209596,-0.110044,0.966484,1.54,20.16,-1.96,1770369789.287785
0.198128,-0.124196,0.954284,3.85,21.35,-6.09,1770369789.295761
0.189832,-0.135664,0.947452,2.8,22.540001,-6.3,1770369789.303787
0.17812,-0.141276,0.950136,5.88,22.540001,-5.53,1770369789.311905
0.168116,-0.137128,0.97112,7.42,24.92,-5.88,1770369789.319775
0.158356,-0.130296,0.997716,6.86,26.25,-5.95,1770369789.327779
0.146644,-0.116388,1.036756,7.0,27.719999,-8.82,1770369789.335802
0.126148,-0.100284,1.06628,7.21,30.59,-7.49,1770369789.343782
0.09882,-0.08296,1.077016,7.56,32.41,-11.97,1770369789.351847
0.069052,-0.066612,1.086532,5.67,33.529999,-12.74,1770369789.359772
0.043432,-0.044164,1.094584,4.76,32.689999,-15.89,1770369789.367773
0.021472,-0.023424,1.105076,3.01,30.24,-16.66,1770369789.375885
0.001952,-0.011712,1.115812,2.1,26.040001,-16.73,1770369789.383814
-0.007076,0.000244,1.125328,0.98,20.719999,-20.02,1770369789.391779
-0.008296,0.0061,1.13338,-2.1,14.84,-21.35,1770369789.399791
-0.004392,0.014884,1.128744,-2.8,8.4,-24.290001,1770369789.407786
0.007808,0.020496,1.118496,-3.71,1.33,-24.08,1770369789.415801
0.02806,0.025864,1.104344,-6.02,-4.41,-28.77,1770369789.423785
0.046116,0.032696,1.101172,-6.44,-9.45,-33.25,1770369789.43186
0.063196,0.035624,1.103856,-6.02,-12.32,-31.92,1770369789.439794
0.075884,0.0488,1.10654,-4.69,-13.09,-35.419998,1770369789.447816
0.08418,0.059292,1.10166,-7.0,-13.44,-37.240002,1770369789.45587
0.099552,0.071492,1.08702,-6.58,-12.74,-43.049999,1770369789.463883
0.10614,0.083204,1.073844,-7.21,-12.67,-44.310001,1770369789.471771
0.114436,0.086864,1.050176,-6.86,-13.23,-47.669998,1770369789.480133
0.119804,0.084424,1.034072,-6.51,-12.32,-48.02,1770369789.487806
0.127856,0.085888,1.022116,-5.81,-11.9,-48.09,1770369789.495764
0.13664,0.079788,1.019432,-6.23,-9.94,-52.990002,1770369789.503863
0.141032,0.069784,1.02358,-6.3,-10.01,-51.169998,1770369789.511797
0.142984,0.058804,1.02358,-6.37,-7.98,-55.09,1770369789.519785
0.144204,0.041968,1.02724,-6.02,-7.98,-54.880001,1770369789.527784
0.141032,0.025376,1.036268,-8.68,-6.79,-56.279999,1770369789.535943
0.136152,0.010736,1.029192,-8.12,-7.07,-54.669998,1770369789.543786
0.129808,0.000976,1.015772,-8.89,-7.84,-53.970001,1770369789.551787
0.117364,-0.013176,1.00162,-9.24,-11.55,-49.560001,1770369789.559783
0.107116,-0.024644,0.97966,-10.08,-14.28,-48.369999,1770369789.567809
0.102724,-0.042212,0.960384,-10.99,-17.5,-45.779999,1770369789.575862
0.095892,-0.056852,0.922076,-9.8,-20.65,-44.869999,1770369789.583786
0.097356,-0.0671,0.898896,-7.0,-22.4,-41.720001,1770369789.591771
0.104676,-0.072224,0.895236,-3.78,-25.690001,-41.93,1770369789.59979
0.113216,-0.06588,0.910364,-1.75,-25.200001,-38.919998,1770369789.607903
0.132736,-0.052948,0.954772,-2.03,-26.459999,-39.34,1770369789.615773
0.155672,-0.037332,1.003816,-3.71,-23.940001,-39.34,1770369789.62377
0.175192,-0.0305,1.029436,-7.21,-23.73,-37.240002,1770369789.631778
0.193492,-0.030988,1.055544,-10.64,-25.059999,-34.790001,1770369789.639805
0.210816,-0.026596,1.079944,-14.84,-26.6,-31.639999,1770369789.647787
0.2318,-0.014884,1.075308,-19.25,-32.060001,-28.0,1770369789.655784
0.2501,-0.005612,1.02968,-26.110001,-35.560001,-22.540001,1770369789.66381
0.264496,-0.01586,0.983808,-26.110001,-38.990002,-19.6,1770369789.67179
0.289872,-0.037088,0.964044,-27.299999,-44.59,-13.3,1770369789.679798
0.307684,-0.056852,0.964044,-24.85,-43.259998,-8.33,1770369789.687788
0.325252,-0.074176,0.963312,-24.290001,-40.529999,-4.83,1770369789.695827
0.3355,-0.085644,0.96868,-19.459999,-33.599998,-3.85,1770369789.703835
0.336964,-0.096624,0.9821,-15.89,-24.85,-1.47,1770369789.711786
0.319152,-0.094428,0.99552,-11.62,-14.84,-2.8,1770369789.719779
0.288652,-0.09394,1.01504,-7.42,-5.88,-1.68,1770369789.727782
0.254736,-0.085888,1.026996,-5.67,2.24,-5.46,1770369789.735779
0.21838,-0.080032,1.045052,-4.9,5.74,-4.2,1770369789.743942
0.19398,-0.067588,1.06994,-3.78,6.86,-9.03,1770369789.751783
0.1769,-0.063928,1.104832,-5.11,4.34,-9.03,1770369789.759785
0.175924,-0.059536,1.130208,-6.3,0.63,-9.45,1770369789.767782
0.18544,-0.05612,1.157536,-6.58,-6.44,-11.62,1770369789.775818
0.2013,-0.047824,1.173396,-10.01,-12.53,-12.46,1770369789.78379
0.236924,-0.033428,1.169736,-9.59,-19.040001,-13.37,1770369789.79177
0.281088,-0.021716,1.151924,-12.67,-25.41,-10.5,1770369789.799794
0.322324,-0.010736,1.128988,-12.32,-30.940001,-11.97,1770369789.807918
0.362828,0.007076,1.093608,-15.47,-30.799999,-5.67,1770369789.815787
0.39528,0.016836,1.018456,-15.75,-30.799999,-8.68,1770369789.82378
0.425048,0.01342,0.939156,-15.19,-28.700001,-3.64,1770369789.831803
0.460916,0.006588,0.895236,-14.84,-25.690001,-1.05,1770369789.839838
0.498248,-0.00122,0.890356,-12.81,-23.52,2.31,1770369789.847802
0.523136,-0.006588,0.920368,-16.799999,-19.18,7.63,1770369789.855786
0.548512,0.000732,0.9821,-20.299999,-9.17,7.84,1770369789.863788
0.554124,0.01342,1.039928,-24.639999,4.2,11.2,1770369789.87177
0.528016,0.027816,1.050908,-30.870001,21.49,8.96,1770369789.87981
0.477508,0.039528,1.036024,-35.419998,39.549999,5.18,1770369789.88779
0.405284,0.04148,1.027484,-40.669998,55.369999,2.8,1770369789.895773
0.322812,0.03416,1.02968,-48.09,72.239998,-1.61,1770369789.903795
0.254248,0.002196,1.00772,-50.330002,81.760002,-6.93,1770369789.9118
0.188124,-0.05246,0.959408,-55.299999,86.099998,-7.7,1770369789.91983
0.134932,-0.123708,0.911096,-54.389999,87.43,-8.47,1770369789.927778
0.09272,-0.194712,0.885476,-51.59,79.870003,-6.65,1770369789.935785
0.061,-0.254736,0.89792,-51.169998,71.050003,-8.33,1770369789.943823
0.035868,-0.29646,0.93086,-47.32,59.57,-5.53,1770369789.951787
0.01464,-0.32818,0.966484,-47.389999,46.970001,-2.52,1770369789.959783
-0.005612,-0.351848,0.982588,-44.099998,35.209999,0.84,1770369789.967785
-0.014396,-0.375516,0.987468,-43.540001,21.91,0.98,1770369789.976049
-0.017568,-0.39162,0.97356,-43.610001,10.99,5.39,1770369789.983787
-0.009028,-0.407724,0.966972,-41.369999,2.87,1.12,1770369789.991778
0.014396,-0.413092,0.949648,-41.860001,-5.32,2.45,1770369789.999786
0.04392,-0.407724,0.932324,-38.43,-7.84,-3.64,1770369790.00784
0.07808,-0.395524,0.920124,-38.080002,-10.29,-1.61,1770369790.015791
0.1098,-0.372832,0.911828,-35.07,-9.52,-7.14,1770369790.02377
0.144692,-0.350628,0.883524,-34.439999,-5.18,-11.13,1770369790.031796
0.181292,-0.338184,0.866932,-31.219999,-1.33,-12.95,1770369790.039781
0.218868,-0.322812,0.883524,-26.530001,5.18,-15.12,1770369790.047846
0.241316,-0.288408,0.917196,-21.209999,11.83,-15.61,1770369790.055803
0.244488,-0.248636,0.950624,-21.91,20.93,-18.48,1770369790.064092
0.233508,-0.223504,0.981856,-23.59,28.629999,-21.98,1770369790.071912
0.204228,-0.222528,0.994544,-27.16,36.540001,-23.870001,1770369790.079817
0.16714,-0.249856,0.995276,-28.49,43.75,-25.200001,1770369790.087819
0.126148,-0.29158,0.9882,-27.860001,45.779999,-27.09,1770369790.095779
0.083204,-0.332572,0.96746,-28.07,47.18,-30.450001,1770369790.103785
0.042212,-0.366732,0.949892,-25.76,45.080002,-29.82,1770369790.111784
-0.001464,-0.383812,0.929396,-24.219999,41.299999,-34.299999,1770369790.119817
-0.033672,-0.386496,0.916708,-20.440001,36.75,-34.369999,1770369790.127927
-0.064904,-0.373076,0.919392,-20.23,30.870001,-31.57,1770369790.135781
-0.099064,-0.3416,0.937204,-22.540001,26.25,-33.18,1770369790.14379
-0.145912,-0.30012,0.965264,-23.24,22.82,-32.41,1770369790.151783
-0.201788,-0.26352,0.975756,-28.77,19.32,-32.060001,1770369790.159938
-0.25864,-0.24278,0.965752,-29.540001,17.15,-32.48,1770369790.167804
-0.316712,-0.228628,0.942328,-30.17,14.28,-35.91,1770369790.175782
-0.352092,-0.249612,0.909388,-31.219999,6.72,-38.779999,1770369790.183797
-0.376492,-0.269132,0.871812,-24.639999,-4.41,-43.049999,1770369790.191832
-0.378444,-0.292556,0.899384,-20.299999,-18.41,-44.169998,1770369790.199788
-0.361608,-0.306708,0.965508,-10.57,-31.08,-51.869999,1770369790.207784
-0.316956,-0.305,0.961116,-3.78,-45.220001,-50.259998,1770369790.215779
-0.2501,-0.293532,0.9333,0.35,-58.66,-58.240002,1770369790.223808
-0.161284,-0.26474,0.952332,4.41,-71.120003,-56.560001,1770369790.231787
-0.054656,-0.231312,1.023824,7.0,-82.599998,-57.540001,1770369790.239774
0.059292,-0.183976,1.118984,9.87,-90.510002,-56.77,1770369790.247786
0.169336,-0.140056,1.1956,9.52,-95.129997,-51.73,1770369790.255784
0.268644,-0.114436,1.223416,4.69,-96.739998,-52.360001,1770369790.263843
0.352092,-0.111996,1.204628,-2.38,-97.510002,-42.77,1770369790.271788
0.425048,-0.122244,1.177056,-5.25,-94.080002,-39.34,1770369790.279814
0.497516,-0.144448,1.163636,-7.91,-91.07,-33.599998,1770369790.287781
0.55754,-0.16348,1.13826,-10.99,-83.580002,-27.09,1770369790.295763
0.598532,-0.188368,1.08824,-13.79,-74.690002,-23.309999,1770369790.303917
0.609756,-0.210572,1.027972,-17.08,-62.509998,-19.67,1770369790.311776
0.631228,-0.238876,0.9638,-19.67,-47.740002,-15.89,1770369790.319777
0.630008,-0.255224,0.919636,-20.09,-29.049999,-15.82,1770369790.327851
0.611464,-0.248392,0.895724,-21.07,-12.32,-13.02,1770369790.335793
0.569008,-0.234728,0.886696,-24.639999,5.67,-14.14,1770369790.343779
0.509228,-0.226188,0.881572,-26.879999,18.83,-12.18,1770369790.351789
0.438468,-0.231312,0.877912,-28.98,28.49,-12.25,1770369790.359781
0.365268,-0.247904,0.873276,-30.870001,35.700001,-11.97,1770369790.367806
0.30012,-0.255224,0.876448,-29.889999,36.119999,-10.92,1770369790.375901
0.238876,-0.255468,0.880352,-29.33,33.040001,-11.69,1770369790.383799
0.199592,-0.269864,0.889624,-27.58,28.209999,-12.53,1770369790.391777
0.152256,-0.261568,0.89426,-24.01,19.459999,-13.72,1770369790.399785
0.137128,-0.256932,0.901092,-21.0,10.08,-15.54,1770369790.407785
0.13664,-0.257176,0.922076,-16.66,-0.98,-14.63,1770369790.415883
0.1586,-0.27938,0.948672,-15.61,-8.4,-18.48,1770369790.423788
0.194712,-0.327204,0.946476,-10.43,-14.49,-18.48,1770369790.431771
0.230824,-0.374052,0.921832,-9.87,-20.51,-21.84,1770369790.439809
0.271816,-0.405284,0.880596,-3.22,-21.629999,-24.92,1770369790.447866
0.317688,-0.419192,0.85278,2.1,-21.49,-23.17,1770369790.455786
0.359412,-0.429684,0.846436,7.0,-20.02,-26.32,1770369790.463787
0.392352,-0.42822,0.8784,11.97,-13.3,-26.110001,1770369790.471887
0.421632,-0.43188,0.90402,14.0,-6.86,-24.85,1770369790.479802
0.427732,-0.431392,0.920856,17.01,2.45,-26.74,1770369790.487782
0.425536,-0.433588,0.935984,20.51,10.85,-25.41,1770369790.495764
0.420168,-0.438712,0.954284,21.209999,19.809999,-25.76,1770369790.503784
0.40382,-0.43676,0.956968,22.82,25.48,-31.85,1770369790.511784
0.380152,-0.422364,0.937204,24.360001,29.120001,-26.389999,1770369790.51978
0.359412,-0.407968,0.920612,25.9,30.450001,-30.17,1770369790.527867
0.34648,-0.393816,0.92232,25.41,28.559999,-24.5,1770369790.535772
0.332328,-0.366976,0.924028,24.08,27.23,-26.6,1770369790.543776
0.325008,-0.337452,0.917928,24.43,28.35,-21.0,1770369790.551789
0.311344,-0.31354,0.910364,22.120001,29.190001,-19.459999,1770369790.559784
0.301828,-0.30256,0.909632,20.860001,31.219999,-16.870001,1770369790.567804
0.287676,-0.29524,0.906704,18.200001,33.669998,-12.74,1770369790.575788
0.273036,-0.300852,0.918904,16.450001,37.240002,-14.63,1770369790.583807
0.258884,-0.30866,0.928908,16.52,39.900002,-10.36,1770369790.591783
0.242292,-0.315248,0.945256,17.219999,43.540001,-9.24,1770369790.599792
0.232288,-0.31964,0.962824,15.33,45.43,-5.11,1770369790.607786
0.210328,-0.316956,0.967948,15.19,43.75,-4.97,1770369790.615904
0.188612,-0.331108,0.960628,11.62,41.439999,-2.73,1770369790.623793
0.161772,-0.345016,0.954772,16.73,36.540001,-1.05,1770369790.631774
0.141764,-0.344772,0.956236,16.450001,32.970001,0.42,1770369790.639797
0.13054,-0.341356,0.971852,18.83,29.120001,0.28,1770369790.647824
0.122976,-0.327692,0.990396,17.99,26.110001,0.42,1770369790.655791
0.119072,-0.308904,1.004548,15.68,23.940001,1.4,1770369790.663878
0.117852,-0.301828,1.021384,15.19,21.77,3.22,1770369790.671812
0.111264,-0.295484,1.030168,13.16,19.950001,3.01,1770369790.679877
0.104432,-0.281088,1.029436,13.23,17.15,6.16,1770369790.687786
0.101016,-0.260836,1.026508,12.67,15.61,4.55,1770369790.695882
0.09516,-0.239364,1.02968,9.17,13.93,4.48,1770369790.703817
0.0915,-0.214476,1.027972,9.31,13.09,3.92,1770369790.711786
0.086864,-0.198616,1.016016,6.23,10.22,5.74,1770369790.719787
0.079544,-0.19764,1.00162,3.36,7.49,4.2,1770369790.727801
0.078568,-0.196908,0.9821,1.75,5.18,1.89,1770369790.735881
0.077104,-0.201544,0.974048,-2.52,0.14,4.34,1770369790.743776
0.086376,-0.211792,0.964288,-0.49,-3.64,0.84,1770369790.751772
0.10004,-0.216672,0.963068,-0.07,-7.28,1.4,1770369790.759857
0.116632,-0.217892,0.95526,-0.56,-11.27,1.89,1770369790.767793
0.134932,-0.217404,0.958188,0.42,-12.18,0.21,1770369790.775783
0.15128,-0.213744,0.957944,0.7,-14.21,1.96,1770369790.783814
0.162748,-0.209596,0.96258,4.55,-12.18,3.92,1770369790.791787
0.17446,-0.207156,0.976244,5.25,-10.64,6.58,1770369790.79979
0.166896,-0.207156,0.992592,7.56,-9.24,7.98,1770369790.807787
0.151036,-0.208132,1.009184,9.87,-7.0,8.05,1770369790.815916
0.127124,-0.210572,1.020164,7.56,-3.22,9.52,1770369790.823783
0.100528,-0.214476,1.031388,11.13,-3.78,9.45,1770369790.831786
0.078568,-0.227408,1.041392,9.87,-3.64,10.43,1770369790.839793
0.053924,-0.244732,1.048468,10.01,-5.67,9.73,1770369790.847814
0.03538,-0.266936,1.054568,10.01,-9.66,5.18,1770369790.855799
0.0244,-0.2806,1.058472,7.42,-14.63,5.74,1770369790.863788
0.024644,-0.299876,1.06506,9.52,-22.190001,0.0,1770369790.871773
0.0305,-0.308416,1.0553,9.87,-30.73,2.45,1770369790.880007
0.043676,-0.311588,1.038464,10.99,-40.529999,1.4,1770369790.88779
0.074908,-0.304756,1.022116,10.64,-47.950001,-4.13,1770369790.895768
0.106384,-0.296216,1.007232,10.57,-55.720001,-2.17,1770369790.903792
0.147132,-0.2867,0.99674,13.37,-60.830002,-4.06,1770369790.911909
0.185684,-0.268156,0.99064,12.88,-61.880001,-2.8,1770369790.919923
0.223748,-0.25132,0.98088,15.12,-63.279999,-3.64,1770369790.927779
0.249368,-0.234972,0.970632,13.44,-62.09,-3.15,1770369790.935782
0.280112,-0.217648,0.959408,13.79,-59.009998,-2.59,1770369790.943792
0.301096,-0.206424,0.9516,13.86,-57.049999,-3.08,1770369790.951801
0.325984,-0.19398,0.944524,14.56,-52.849998,-1.05,1770369790.959785
0.344284,-0.183,0.946232,13.86,-49.630001,-3.15,1770369790.967784
0.366244,-0.177876,0.953308,13.79,-45.990002,-5.18,1770369790.97578
0.378932,-0.169336,0.96868,11.69,-41.580002,-1.05,1770369790.983797
0.387716,-0.16348,0.97356,15.12,-37.240002,-1.47,1770369790.991894
0.388448,-0.163236,0.977464,14.56,-33.18,-1.05,1770369790.999797
0.38552,-0.16836,0.971608,13.44,-29.26,1.89,1770369791.007789
0.376736,-0.177144,0.9699,15.33,-25.969999,0.56,1770369791.01579
0.367952,-0.184464,0.969656,16.870001,-22.4,3.78,1770369791.023873
0.358436,-0.193736,0.97722,19.530001,-19.389999,2.73,1770369791.031811
0.351116,-0.200324,0.999424,21.559999,-18.969999,2.38,1770369791.039772
0.325252,-0.195688,1.015528,23.309999,-15.54,7.98,1770369791.047776
0.300608,-0.203496,1.022848,24.639999,-13.3,2.59,1770369791.055788
0.27206,-0.208132,1.019188,25.76,-12.6,8.19,1770369791.063899
0.243024,-0.207888,1.009428,25.83,-12.18,4.48,1770369791.072521
0.219844,-0.201788,1.003572,29.540001,-13.65,4.9,1770369791.080186
0.196176,-0.188856,1.001864,29.120001,-16.52,3.64,1770369791.087789
0.183488,-0.174216,1.016504,32.060001,-22.26,0.28,1770369791.095776
0.179096,-0.149328,1.029436,27.719999,-26.25,0.07,1770369791.10386
0.182024,-0.131516,1.033828,28.209999,-33.25,-2.52,1770369791.111813
0.194712,-0.116876,1.031144,25.620001,-41.369999,-4.41,1770369791.119784
0.211548,-0.10736,1.0248,24.15,-49.77,-7.56,1770369791.12778
0.236436,-0.102968,1.013088,22.120001,-57.75,-13.51,1770369791.135784
0.268888,-0.100284,0.99064,19.32,-63.84,-13.65,1770369791.143777
0.30622,-0.104188,0.96624,20.440001,-68.040001,-17.92,1770369791.151864
0.343308,-0.099064,0.948916,19.389999,-70.699997,-18.690001,1770369791.159785
0.381372,-0.096868,0.937692,20.09,-71.959999,-19.25,1770369791.16798
0.415776,-0.091988,0.92476,17.57,-71.330002,-21.139999,1770369791.175778
0.446764,-0.087108,0.910852,16.73,-67.830002,-20.02,1770369791.183801
0.471408,-0.076616,0.906704,17.99,-63.07,-21.35,1770369791.191781
0.490196,-0.067588,0.8967,15.89,-58.73,-21.0,1770369791.199795
0.506056,-0.065148,0.8967,14.35,-54.110001,-20.58,1770369791.207782
0.523868,-0.061,0.889136,13.09,-48.650002,-20.370001,1770369791.21578
0.530944,-0.062464,0.877912,8.12,-44.799999,-17.780001,1770369791.223797
0.532896,-0.06588,0.869616,8.19,-40.25,-18.9,1770369791.231785
0.537532,-0.079544,0.870348,6.02,-37.59,-15.75,1770369791.239781
0.543632,-0.08418,0.86498,7.0,-34.790001,-14.77,1770369791.247768
0.54534,-0.085156,0.856928,4.97,-32.27,-14.56,1770369791.255817
0.546804,-0.081496,0.846192,5.18,-29.68,-14.42,1770369791.263795
0.55266,-0.077348,0.847412,4.97,-27.02,-13.51,1770369791.271786
0.558516,-0.071736,0.858392,4.76,-25.27,-13.93,1770369791.279778
0.56486,-0.070028,0.879132,5.53,-21.49,-14.28,1770369791.287827
0.570472,-0.064904,0.889136,3.57,-18.620001,-12.6,1770369791.295766
0.571448,-0.05978,0.897188,2.31,-15.33,-15.33,1770369791.303785
0.569984,-0.057096,0.895968,2.66,-12.11,-13.37,1770369791.311781
0.567544,-0.057096,0.903288,1.47,-9.73,-14.98,1770369791.319776
0.561932,-0.05246,0.907436,3.01,-4.9,-11.9,1770369791.327777
0.552904,-0.058804,0.909144,2.59,-2.1,-16.17,1770369791.335786
0.540216,-0.069784,0.894016,1.54,-0.35,-14.77,1770369791.343776
0.533628,-0.078568,0.887184,0.7,3.64,-17.92,1770369791.35178
0.533872,-0.083936,0.882304,2.1,5.88,-16.309999,1770369791.359808
0.531676,-0.086376,0.888404,2.66,4.83,-15.75,1770369791.367799
0.532408,-0.08174,0.90036,1.75,6.72,-13.37,1770369791.375766
0.53192,-0.067832,0.91622,0.77,6.65,-11.9,1770369791.383809
0.532652,-0.055144,0.923784,0.0,8.33,-9.66,1770369791.39179
0.523624,-0.048068,0.922808,-0.98,10.43,-9.94,1770369791.399795
0.516548,-0.04148,0.917684,-1.12,9.1,-6.86,1770369791.407791
0.509716,-0.047336,0.918172,-1.4,8.96,-6.65,1770369791.415782
0.503372,-0.052704,0.916464,-4.69,11.55,-3.64,1770369791.423796
0.493368,-0.063684,0.909144,-1.47,12.11,-4.76,1770369791.431784
0.481168,-0.072468,0.896456,-0.14,11.76,-1.47,1770369791.439897
0.47336,-0.08052,0.895724,0.91,13.86,-0.35,1770369791.447814
0.468236,-0.08906,0.914024,1.47,13.72,-4.13,1770369791.455787
0.464088,-0.089304,0.929152,-1.33,14.07,-1.68,1770369791.46379
0.454572,-0.094916,0.93818,2.8,13.79,-3.71,1770369791.471798
0.445544,-0.098576,0.9394,0.35,14.14,-0.14,1770369791.479895
0.437492,-0.104676,0.944768,2.8,13.65,-3.29,1770369791.487801
0.42944,-0.107604,0.950868,1.54,14.49,-1.12,1770369791.495766
0.424072,-0.097356,0.958676,1.75,12.81,-3.15,1770369791.503789
0.418948,-0.094184,0.966972,2.66,10.08,-0.14,1770369791.511896
0.408456,-0.090768,0.972096,1.75,9.87,-2.17,1770369791.519778
0.395768,-0.092964,0.97844,3.29,9.1,-1.4,1770369791.527783
0.387716,-0.094672,0.977952,3.08,7.0,-1.82,1770369791.535783
0.381372,-0.099796,0.979416,1.54,4.27,-3.01,1770369791.543933
0.371612,-0.103456,0.977464,2.45,2.03,-5.32,1770369791.551791
0.370392,-0.108336,0.968924,2.8,-0.56,-5.18,1770369791.55979
0.376004,-0.109068,0.965508,2.1,-3.64,-5.53,1770369791.567784
0.39162,-0.10492,0.977952,3.15,-5.88,-9.24,1770369791.57578
0.40748,-0.096624,0.985516,-0.42,-7.77,-7.07,1770369791.583891
0.421632,-0.089548,0.981368,0.42,-9.66,-9.45,1770369791.591816
0.431148,-0.08662,0.967704,1.96,-9.52,-4.76,1770369791.599784
0.442372,-0.085888,0.958432,0.21,-9.66,-6.16,1770369791.607786
0.452864,-0.087108,0.948428,-0.35,-10.01,-7.28,1770369791.615949
0.464088,-0.087596,0.93818,-2.24,-9.24,-5.95,1770369791.623774
0.4697,-0.082716,0.935008,-2.03,-9.1,-9.73,1770369791.631786
0.475312,-0.086864,0.934764,-2.66,-7.84,-6.79,1770369791.639781
0.477752,-0.088328,0.924272,-2.8,-7.0,-6.09,1770369791.647793
0.477264,-0.09028,0.921588,-0.7,-5.53,-7.98,1770369791.655878
0.475556,-0.09394,0.920368,-3.01,-3.85,-8.33,1770369791.663826
0.472872,-0.091744,0.91988,-1.12,-5.04,-7.35,1770369791.671806
0.470432,-0.093208,0.91744,-3.15,-3.64,-5.6,1770369791.679822
0.467992,-0.087352,0.913048,-1.89,-4.2,-4.83,1770369791.687847
0.469944,-0.079056,0.911096,-2.03,-4.2,-7.0,1770369791.69577
0.468236,-0.075152,0.909144,-3.99,-4.2,-5.88,1770369791.70386
0.465064,-0.077592,0.904752,-3.22,-4.34,-6.09,1770369791.711778
0.469944,-0.07564,0.90524,-1.33,-2.87,-5.88,1770369791.719802
0.470432,-0.073444,0.909144,-3.36,-3.08,-5.95,1770369791.727788
0.467504,-0.07198,0.908656,-1.75,-0.77,-7.63,1770369791.735785
0.46848,-0.074664,0.90646,-4.9,0.0,-6.3,1770369791.74387
0.470188,-0.07808,0.90036,-1.68,-1.05,-9.1,1770369791.751786
0.467016,-0.079056,0.898164,-2.59,0.56,-6.65,1770369791.759797
0.466772,-0.074908,0.89792,-0.91,0.56,-7.21,1770369791.767786
0.46726,-0.071004,0.912316,0.07,0.21,-6.86,1770369791.775782
0.467504,-0.0671,0.923052,-1.89,0.77,-6.44,1770369791.783926
0.466528,-0.065392,0.927688,-2.24,0.35,-6.44,1770369791.791785
0.463356,-0.06466,0.931592,-1.89,-0.91,-5.39,1770369791.799784
0.461404,-0.0671,0.931592,-1.96,-0.14,-4.62,1770369791.807798
0.461648,-0.071492,0.925736,-0.77,-0.49,-5.53,1770369791.815877
0.460428,-0.078812,0.925736,-3.99,0.35,-5.32,1770369791.823786
0.46116,-0.080276,0.928664,0.35,-0.14,-5.32,1770369791.831799
0.463356,-0.079788,0.932324,-1.75,0.42,-6.58,1770369791.839808
0.465552,-0.07686,0.937204,0.7,0.28,-5.32,1770369791.847781
0.46238,-0.072712,0.934032,0.0,0.35,-7.21,1770369791.855783
0.462868,-0.069052,0.935252,-1.89,-0.14,-2.03,1770369791.863797
0.462624,-0.06466,0.936228,1.12,-0.7,-5.53,1770369791.871923
0.466772,-0.058804,0.936716,-1.33,-1.12,-3.36,1770369791.879804
0.469456,-0.058316,0.934276,-1.26,-1.68,-4.13,1770369791.887844
0.468236,-0.05856,0.932568,-0.21,-1.82,-4.55,1770369791.895768
0.469944,-0.062708,0.926956,-2.24,-0.98,-2.38,1770369791.90379
0.466528,-0.062708,0.922076,1.12,-1.89,-4.62,1770369791.911842
0.465552,-0.061976,0.925492,0.98,-0.21,-4.97,1770369791.920345
0.469944,-0.061244,0.930128,0.98,0.21,-1.96,1770369791.927793
0.467748,-0.061488,0.9394,2.8,-0.91,-3.85,1770369791.935815
0.47214,-0.061488,0.937448,0.21,-0.56,-1.05,1770369791.943809
0.468724,-0.053924,0.942572,1.54,-1.12,-2.03,1770369791.952018
0.467992,-0.049044,0.946232,2.03,-1.68,-1.61,1770369791.959784
0.462136,-0.04514,0.944524,1.54,-1.75,-0.56,1770369791.967791
0.459696,-0.048068,0.93208,-0.07,-1.68,-2.8,1770369791.975782
0.45506,-0.055632,0.924272,-1.75,-2.24,-0.91,1770369791.983814
0.452864,-0.053192,0.920612,0.21,-1.89,-0.98,1770369791.99179
0.450668,-0.05856,0.920368,0.91,-2.66,-2.45,1770369791.999789
0.45262,-0.061,0.92232,2.03,-1.89,0.77,1770369792.007788
0.453596,-0.058072,0.922564,0.49,-3.22,-1.12,1770369792.015828
0.45506,-0.056608,0.922564,0.07,-3.85,-0.21,1770369792.023784
0.453108,-0.053924,0.923784,0.63,-4.48,-1.96,1770369792.0318
0.454816,-0.051728,0.925004,-0.21,-4.13,-0.84,1770369792.039783
0.454816,-0.049044,0.923052,0.42,-4.13,0.21,1770369792.047784
0.45994,-0.04514,0.920856,3.01,-5.53,-1.61,1770369792.055789
0.465308,-0.047092,0.923296,-0.21,-6.44,-1.4,1770369792.063879
0.467748,-0.0427,0.92232,1.33,-5.74,-4.06,1770369792.072527
0.472872,-0.039528,0.91988,0.35,-4.9,0.42,1770369792.07996
0.472384,-0.041236,0.914756,2.31,-5.39,-1.4,1770369792.087808
0.475312,-0.03904,0.913292,1.05,-6.3,-0.14,1770369792.09587
0.480924,-0.037576,0.915732,-0.56,-3.99,-3.08,1770369792.103797
0.48068,-0.039284,0.915488,1.75,-5.53,0.35,1770369792.111789
0.483364,-0.041968,0.920124,1.19,-4.76,-3.36,1770369792.119811
0.488244,-0.04026,0.9211,0.35,-3.85,0.21,1770369792.127767
0.487024,-0.040748,0.923296,0.14,-3.22,-0.56,1770369792.135942
0.485316,-0.04148,0.923296,1.12,-2.31,-0.49,1770369792.143776
0.483608,-0.04148,0.92354,1.12,-2.03,0.42,1770369792.151779
0.48434,-0.042456,0.925248,1.33,-1.33,-0.49,1770369792.159761
0.48068,-0.040748,0.92842,2.03,-1.54,0.77,1770369792.167775
0.484096,-0.041724,0.930128,0.42,-2.1,-1.26,1770369792.175805
0.485316,-0.041724,0.928176,-0.21,-1.68,0.42,1770369792.184039
0.482632,-0.039284,0.925004,0.35,0.35,-1.26,1770369792.191792
0.483608,-0.038796,0.924272,0.35,-0.49,-0.42,1770369792.199789
0.486048,-0.033184,0.925004,-0.42,0.7,0.42,1770369792.207777
0.483364,-0.030988,0.935252,-1.82,0.91,-2.17,1770369792.215814
0.482144,-0.036844,0.931836,-2.24,1.19,-1.26,1770369792.223795
0.4819,-0.034404,0.931348,-1.54,1.96,0.0,1770369792.231877
0.486292,-0.037576,0.933544,-1.19,1.75,-0.21,1770369792.23978
0.476288,-0.036844,0.928908,0.21,3.08,2.45,1770369792.247777
0.475068,-0.041724,0.929152,-0.35,2.17,0.07,1770369792.255778
0.474092,-0.048312,0.926224,-2.24,1.54,-1.47,1770369792.263861
0.47214,-0.049044,0.924516,-0.63,2.31,-0.14,1770369792.271808
0.471408,-0.05368,0.927444,-0.7,2.52,-0.14,1770369792.279776
0.47458,-0.059048,0.924028,0.7,1.54,0.56,1770369792.287799
0.471896,-0.057096,0.924516,-0.77,1.19,-1.68,1770369792.2958
0.473604,-0.057828,0.929152,0.21,3.22,-0.14,1770369792.303899
0.474336,-0.057584,0.935496,1.12,2.1,0.77,1770369792.311777
0.468724,-0.0549,0.936472,-0.98,2.87,-1.68,1770369792.319778
0.460184,-0.060756,0.930616,-1.26,3.15,2.1,1770369792.327779
0.454816,-0.066856,0.92476,-0.21,3.57,-2.94,1770369792.335815
0.447496,-0.065636,0.9211,-0.21,3.08,-0.91,1770369792.343788
0.449936,-0.065636,0.924516,-0.77,2.45,-1.82,1770369792.351782
0.450668,-0.060756,0.926468,-0.21,3.85,-1.82,1770369792.359775
0.448716,-0.060512,0.922564,-0.21,2.66,-2.73,1770369792.367778
0.445544,-0.060512,0.921832,1.68,2.45,-1.47,1770369792.37577
0.447252,-0.061,0.92232,-1.75,1.89,3.36,1770369792.383797
0.44042,-0.061732,0.926468,1.68,0.56,-2.17,1770369792.391814
0.440908,-0.05612,0.926224,0.56,0.07,2.59,1770369792.399793
0.435052,-0.058316,0.928908,0.35,-1.12,-3.15,1770369792.40782
0.43554,-0.056608,0.930372,2.24,-0.56,2.31,1770369792.415782
0.432856,-0.051728,0.927444,-2.31,0.56,-1.33,1770369792.423792
0.436028,-0.05734,0.92476,1.33,-1.89,-2.45,1770369792.431789
0.44164,-0.05856,0.925248,0.07,-0.77,-2.59,1770369792.439871
0.448472,-0.059048,0.927444,-0.21,-2.66,0.0,1770369792.447816
0.45506,-0.058804,0.925736,0.35,-2.59,-2.59,1770369792.455788
0.45506,-0.061732,0.918904,-1.68,-1.54,-0.91,1770369792.463791
0.456524,-0.057584,0.924028,1.12,-2.31,-3.5,1770369792.471787
0.457744,-0.0549,0.93086,-0.98,-2.38,-1.12,1770369792.479898
0.453596,-0.053192,0.936716,0.56,-1.12,-1.26,1770369792.487808
0.454572,-0.054168,0.938424,0.91,-2.8,-0.91,1770369792.495804
0.450912,-0.055632,0.937204,-0.7,-3.01,-2.94,1770369792.503861
0.454816,-0.05734,0.933056,0.42,-2.87,-3.15,1770369792.511774
0.457256,-0.05978,0.935252,1.19,-4.34,-2.94,1770369792.51982
0.460916,-0.059536,0.93452,-0.56,-3.15,-1.12,1770369792.527798
0.466284,-0.063928,0.934276,0.21,-3.01,-3.99,1770369792.535793
0.46604,-0.06222,0.93208,-2.24,-2.45,-1.33,1770369792.543781
0.466772,-0.060268,0.924028,-0.91,-3.01,-3.36,1770369792.551789
0.471408,-0.059048,0.927932,0.21,-3.92,-2.38,1770369792.559797
0.470676,-0.059292,0.926956,-0.56,-3.29,-1.47,1770369792.567928
0.474092,-0.059292,0.92842,0.14,-1.89,-1.26,1770369792.575771
0.476044,-0.061244,0.928664,0.14,-1.68,-0.35,1770369792.583786
0.475068,-0.062464,0.929884,-0.56,-2.03,-0.91,1770369792.591804
0.47336,-0.059536,0.92842,-1.05,-1.47,-1.12,1770369792.599789
0.466772,-0.058804,0.925492,-0.35,-1.33,-1.82,1770369792.607936
0.470188,-0.057828,0.929152,-0.14,-1.33,-1.82,1770369792.615797
0.465064,-0.061488,0.929884,-1.54,-0.35,-0.91,1770369792.623771
0.463844,-0.058072,0.930616,-0.14,-1.26,-3.01,1770369792.631795
0.462624,-0.058804,0.93208,-0.77,-0.98,-0.56,1770369792.639874
0.461892,-0.05856,0.9272,-0.56,-1.33,-3.29,1770369792.647829
0.460184,-0.058804,0.92232,0.0,-2.1,-2.94,1770369792.655807
0.459696,-0.059536,0.926468,-2.1,-0.77,-2.38,1770369792.663785
0.464088,-0.058804,0.922076,-0.42,-2.45,-2.59,1770369792.672016
0.464088,-0.060024,0.922808,-1.12,-1.75,-2.38,1770369792.679791
0.468236,-0.061732,0.925736,-0.21,-1.89,-1.4,1770369792.687801
0.474824,-0.06222,0.92964,-0.35,-1.54,-1.89,1770369792.695879
0.473604,-0.057584,0.932568,-0.35,-0.21,-0.49,1770369792.703814
0.472628,-0.058804,0.929396,-0.21,0.07,-2.52,1770369792.711784
0.47092,-0.059048,0.9272,-0.98,-0.35,-0.14,1770369792.719813
0.467016,-0.057828,0.921344,0.56,0.77,-4.2,1770369792.727835
0.464088,-0.055388,0.920124,-0.77,-0.91,-0.84,1770369792.735781
0.460916,-0.05856,0.925736,-1.33,0.0,-2.94,1770369792.743781
0.46238,-0.054412,0.922076,-0.35,-0.35,-2.59,1770369792.751769
0.464088,-0.056364,0.927688,-1.12,-0.07,-2.59,1770369792.759808
0.4636,-0.056852,0.926712,-1.75,0.21,-1.26,1770369792.767794
0.466284,-0.059048,0.925004,0.91,-1.54,-0.63,1770369792.77579
0.462624,-0.06222,0.927932,-3.36,-0.14,-3.29,1770369792.783781
0.46726,-0.062464,0.930372,-0.35,0.56,-2.03,1770369792.791846
0.464088,-0.063928,0.93208,0.21,-0.98,-1.61,1770369792.799864
0.466772,-0.06344,0.929152,-0.77,-1.33,-1.33,1770369792.807791
0.463356,-0.066856,0.92354,-0.07,-1.82,-0.77,1770369792.815784
0.461648,-0.067832,0.921344,-1.12,-0.98,-1.96,1770369792.823883
0.464332,-0.06832,0.925492,0.35,-1.12,-0.49,1770369792.831805
0.462624,-0.061,0.924516,0.0,-0.56,0.07,1770369792.839801
0.463356,-0.058804,0.925736,0.77,0.14,-2.73,1770369792.847785
0.467992,-0.05612,0.923052,0.0,-0.77,-2.03,1770369792.85578
0.46238,-0.05734,0.92476,-0.77,-0.21,-1.96,1770369792.863845
0.468236,-0.054412,0.9272,0.91,-1.33,-1.89,1770369792.8718
0.46726,-0.053924,0.93086,0.7,-1.19,-0.35,1770369792.879782
0.463356,-0.055388,0.92964,0.21,0.42,-0.21,1770369792.887881
0.460672,-0.05978,0.931348,-0.07,-0.21,-0.56,1770369792.895771
0.458476,-0.059536,0.92842,-2.94,-0.98,-1.05,1770369792.903787
0.459696,-0.063684,0.929884,1.68,-0.07,-2.73,1770369792.911772
0.460916,-0.061732,0.92476,-0.77,-0.98,-1.96,1770369792.919791
0.459208,-0.062708,0.924272,1.33,-1.47,0.56,1770369792.927868
0.46116,-0.062464,0.92354,-0.21,-1.12,-1.82,1770369792.935804
0.461892,-0.060512,0.926956,0.14,-1.89,-0.49,1770369792.943782
0.461404,-0.055388,0.927444,1.68,-1.33,-1.68,1770369792.951786
0.46238,-0.053436,0.926468,0.56,-1.54,-0.21,1770369792.959786
0.461404,-0.050508,0.9272,0.77,-1.68,-0.21,1770369792.967809
0.460428,-0.053924,0.929152,-0.42,-1.19,0.0,1770369792.975787
0.465552,-0.051972,0.932568,-2.03,-1.89,0.35,1770369792.983822
0.464576,-0.053436,0.934276,-0.14,-1.75,-2.31,1770369792.991806
0.467504,-0.055632,0.934764,-0.98,-2.24,0.98,1770369792.999792
0.463356,-0.057584,0.9333,0.14,-2.66,1.26,1770369793.007786
0.464088,-0.057096,0.930372,0.21,-2.24,-0.7,1770369793.015883
0.467016,-0.058072,0.92964,-1.33,-3.43,0.63,1770369793.023857
0.467016,-0.059536,0.92232,1.33,-3.01,-2.03,1770369793.031798
0.47092,-0.060512,0.919148,-0.14,-2.24,1.12,1770369793.039785
0.470676,-0.062952,0.91988,1.33,-2.8,-0.28,1770369793.047781
0.475068,-0.061976,0.920856,0.91,-2.1,0.7,1770369793.055809
0.474336,-0.060024,0.92476,-1.47,-2.52,-0.35,1770369793.063891
0.474092,-0.05734,0.926224,1.33,-1.33,0.21,1770369793.071924
0.473848,-0.054656,0.92232,2.45,-1.19,0.14,1770369793.079817
0.468968,-0.059048,0.922808,1.47,-1.68,1.47,1770369793.087916
0.466528,-0.05734,0.922076,0.35,-1.75,0.0,1770369793.095789
0.465796,-0.058804,0.919636,-1.33,-1.47,0.91,1770369793.103786
0.465064,-0.059292,0.920368,1.89,-1.54,0.35,1770369793.111792
0.461404,-0.060024,0.924516,-0.07,-1.33,-0.28,1770369793.119937
0.465552,-0.055876,0.924516,1.89,-0.91,1.68,1770369793.12777
0.463356,-0.055876,0.927688,1.33,-2.1,0.56,1770369793.135773
0.467504,-0.056608,0.926468,-1.54,-2.87,-0.7,1770369793.143773
0.468968,-0.056364,0.923052,2.87,-2.87,-0.84,1770369793.151774
0.468724,-0.054412,0.9211,1.47,-2.66,-1.47,1770369793.159777
0.468236,-0.05368,0.921344,0.7,-1.54,0.35,1770369793.167803
0.467748,-0.057096,0.924028,1.19,-1.54,-1.68,1770369793.175926
0.471164,-0.055144,0.926468,0.14,-1.12,0.42,1770369793.183765
0.471896,-0.050752,0.927932,1.89,-1.96,-0.77,1770369793.192285
0.472384,-0.052948,0.92964,0.49,-1.75,0.91,1770369793.199779
0.471408,-0.053192,0.9272,1.4,-3.57,1.89,1770369793.207821
0.471896,-0.054168,0.92232,-0.91,-3.29,0.91,1770369793.215915
0.47336,-0.0549,0.922564,-1.82,-2.1,1.47,1770369793.223775
0.474336,-0.056608,0.921832,2.87,-2.52,-1.12,1770369793.231778
0.479216,-0.053436,0.919636,-0.63,-1.33,0.98,1770369793.239777
0.47702,-0.056852,0.9211,0.98,-2.1,2.1,1770369793.247774
0.47702,-0.057584,0.924028,1.4,-0.91,0.42,1770369793.255757
0.476288,-0.055388,0.92354,-1.47,-0.42,1.19,1770369793.263778
0.47824,-0.054168,0.92232,0.14,-1.47,0.42,1770369793.271813
0.471164,-0.050508,0.92354,0.7,0.0,-0.91,1770369793.279802
0.470676,-0.050996,0.924272,1.47,-0.91,0.84,1770369793.287775
0.4697,-0.0488,0.926224,0.0,-0.98,-0.14,1770369793.295788
0.463356,-0.049776,0.92598,-0.07,-0.21,0.91,1770369793.303864
0.46726,-0.0549,0.931104,0.7,-1.47,-1.61,1770369793.31178
0.467016,-0.058804,0.929152,0.14,-0.63,0.28,1770369793.319776
0.466284,-0.061,0.926956,-1.12,-1.54,1.33,1770369793.327776
0.467748,-0.061732,0.926712,-0.56,-1.68,-0.63,1770369793.335814
0.467748,-0.062464,0.925736,1.05,-0.91,-0.14,1770369793.343783
0.470188,-0.062952,0.925736,0.77,-1.19,-1.47,1770369793.351778
0.471164,-0.056852,0.924516,0.56,-2.1,-1.68,1770369793.359769
0.473848,-0.057584,0.925736,0.98,-1.47,-0.84,1770369793.367863
0.471408,-0.0549,0.923784,1.33,-1.89,-0.35,1770369793.375785
0.471164,-0.051972,0.9211,-1.33,-2.87,2.45,1770369793.383788
0.474336,-0.051972,0.923296,0.7,-2.45,-0.14,1770369793.391808
0.472872,-0.052704,0.92598,0.14,-0.91,-0.07,1770369793.399798
0.470676,-0.05002,0.92232,0.42,-1.12,-0.91,1770369793.407786
0.470188,-0.054412,0.922808,1.68,-1.05,0.42,1770369793.415786
0.471896,-0.054656,0.918172,-2.03,-0.42,-2.8,1770369793.42379
0.470676,-0.055144,0.923052,0.0,-0.98,-0.49,1770369793.431849
0.471652,-0.0549,0.92232,0.35,-0.91,-3.71,1770369793.439782
0.470676,-0.05368,0.92476,0.14,-1.33,2.03,1770369793.447782
0.47214,-0.05246,0.923296,0.49,-1.54,-0.56,1770369793.455806
0.47214,-0.053436,0.9211,-1.33,-1.12,0.7,1770369793.463907
0.474336,-0.054656,0.91744,-0.98,-2.17,-2.59,1770369793.47178
0.47336,-0.052948,0.91866,-0.35,-0.91,-2.03,1770369793.479789
0.472628,-0.0549,0.920612,-1.12,-1.12,-0.49,1770369793.487901
0.476044,-0.055144,0.925248,0.7,-0.21,-2.03,1770369793.495835
0.471896,-0.053192,0.92598,-1.89,-0.21,-0.35,1770369793.5038
0.469944,-0.05246,0.92476,0.21,-1.12,-3.71,1770369793.511785
0.469456,-0.05368,0.92598,0.77,-1.47,-0.7,1770369793.519865
0.469456,-0.054168,0.92476,0.77,-0.07,-0.35,1770369793.527815
0.468724,-0.0549,0.924028,0.56,-0.56,-2.24,1770369793.535921
0.47092,-0.054168,0.92598,-1.89,0.0,0.35,1770369793.543777
0.474336,-0.055388,0.92476,1.54,-1.33,-1.89,1770369793.55178
0.4758,-0.053436,0.923784,-1.68,-1.12,-0.91,1770369793.559811
0.472872,-0.052704,0.920124,0.35,-0.77,-0.21,1770369793.567859
0.476532,-0.055388,0.923296,-0.77,-1.12,-1.82,1770369793.575789
0.476044,-0.055144,0.922808,-2.24,0.98,-0.91,1770369793.583785
0.473848,-0.049288,0.92598,0.91,-0.7,-1.82,1770369793.591823
0.471896,-0.054412,0.92232,-0.84,0.07,-0.56,1770369793.59987
0.47336,-0.056608,0.923296,-0.7,-0.21,-2.94,1770369793.607785
0.470676,-0.056608,0.919392,0.91,0.35,-1.75,1770369793.615779
0.468236,-0.05734,0.925004,-0.21,0.35,-1.12,1770369793.623767
0.4697,-0.055632,0.926712,-0.42,0.63,-1.47,1770369793.631794
0.468968,-0.0549,0.924028,1.54,-0.98,-1.47,1770369793.639847
0.465796,-0.055632,0.921832,0.56,0.91,-1.61,1770369793.647786
0.46848,-0.055876,0.920612,0.14,0.35,-1.12,1770369793.655789
0.46726,-0.056852,0.9211,-1.47,0.77,-0.14,1770369793.663816
0.461648,-0.053192,0.925736,-0.35,0.0,-3.15,1770369793.671875
0.464088,-0.050996,0.925736,-0.98,0.91,0.7,1770369793.679788
0.464332,-0.048068,0.925736,-0.07,-1.12,-1.26,1770369793.687779
0.465796,-0.048068,0.926956,0.98,-1.47,0.0,1770369793.695928
0.466284,-0.049044,0.932812,-1.54,-0.77,-1.47,1770369793.703794
0.474092,-0.047824,0.929152,0.0,-1.89,-1.12,1770369793.711792
0.473604,-0.050508,0.926956,-0.7,-1.33,-1.26,1770369793.719796
0.472384,-0.054656,0.921832,0.0,-1.12,-2.59,1770369793.727788
0.470188,-0.057584,0.917928,0.56,-0.98,-1.12,1770369793.735831
0.468968,-0.054168,0.917196,-1.26,-0.14,-1.68,1770369793.743781
0.468968,-0.050996,0.920124,0.49,-1.54,-1.82,1770369793.751784
0.468236,-0.052216,0.919392,0.91,-1.19,-1.89,1770369793.759795
0.468724,-0.050752,0.919636,0.35,-1.12,-1.61,1770369793.767841
0.469212,-0.052704,0.917928,0.21,-1.33,-1.61,1770369793.775775
0.471896,-0.051484,0.918416,-1.12,-1.75,-1.12,1770369793.783787
0.476044,-0.051484,0.920856,0.77,-0.77,-3.08,1770369793.79187
0.47336,-0.05246,0.923784,-1.05,-0.91,-2.73,1770369793.799927
0.474336,-0.051728,0.919636,0.56,-1.33,-0.56,1770369793.807785
0.475068,-0.053192,0.920368,0.98,0.21,-0.7,1770369793.815783
0.475312,-0.05368,0.921588,-0.77,-0.35,-0.21,1770369793.823871
0.47336,-0.05368,0.925492,0.42,-1.89,-0.7,1770369793.83181
0.473116,-0.055876,0.925248,0.7,-1.68,-0.91,1770369793.839793
0.467992,-0.055144,0.9272,2.24,-1.89,-0.35,1770369793.847786
0.472384,-0.054412,0.928664,0.56,-1.75,-0.91,1770369793.855833
0.471652,-0.057096,0.932568,-0.77,-1.54,-1.4,1770369793.863791
0.46848,-0.057584,0.929396,0.07,-2.59,0.35,1770369793.87177
0.46848,-0.060756,0.924272,-0.77,-2.31,-2.59,1770369793.879823
0.46848,-0.060756,0.9211,0.91,-2.87,1.33,1770369793.887816
0.469944,-0.059536,0.920124,-2.31,-2.24,-2.52,1770369793.895892
0.473848,-0.060512,0.920856,0.49,-2.66,1.68,1770369793.903792
0.476532,-0.05734,0.91744,0.77,-2.8,-1.12,1770369793.911808
0.48068,-0.053924,0.91622,0.77,-2.59,-2.38,1770369793.919822
0.483364,-0.051728,0.915,1.47,-2.24,0.7,1770369793.927779
0.482388,-0.050996,0.91866,1.33,-1.68,-1.26,1770369793.93578
0.482388,-0.049532,0.921588,-0.91,-0.7,0.98,1770369793.943816
0.480436,-0.05368,0.92354,1.82,-0.21,-1.33,1770369793.951774
0.478484,-0.05124,0.92476,0.35,-0.21,0.28,1770369793.959789
0.474336,-0.051972,0.92232,0.98,0.21,-1.26,1770369793.967785
0.471652,-0.053436,0.922808,1.54,-0.14,-1.47,1770369793.975782
0.471896,-0.054168,0.923296,-0.91,0.07,-1.47,1770369793.983807
0.469944,-0.051484,0.926468,1.33,0.91,-2.24,1770369793.99181
0.470676,-0.055144,0.928176,1.54,0.0,-2.24,1770369793.999803
0.47214,-0.051972,0.929396,0.98,1.12,-0.49,1770369794.007931
0.469456,-0.049776,0.9272,0.0,-0.56,-0.56,1770369794.015784
0.467992,-0.048556,0.923052,-1.12,-0.56,-2.31,1770369794.023781
0.469212,-0.049532,0.919636,1.68,-2.1,-1.47,1770369794.031791
0.471164,-0.05124,0.921588,0.35,-0.91,-1.4,1770369794.039781
0.468236,-0.050996,0.920124,0.7,-1.68,0.42,1770369794.047857
0.467504,-0.053436,0.918416,0.7,-1.68,-1.75,1770369794.055785
0.468236,-0.050996,0.925248,-0.77,-1.54,-0.91,1770369794.063891
0.468236,-0.052216,0.927932,0.42,-2.1,-2.38,1770369794.071881
0.471164,-0.054656,0.926224,0.14,-2.31,0.07,1770369794.079815
0.470676,-0.056364,0.919636,-0.07,-2.87,-0.84,1770369794.087787
0.471408,-0.059292,0.91988,-0.07,-2.66,-0.91,1770369794.095824
0.473604,-0.060512,0.918416,-1.47,-1.54,-0.91,1770369794.103773
0.474824,-0.05856,0.918904,0.0,-2.52,-3.64,1770369794.111796
0.47946,-0.057584,0.91744,0.21,-1.89,-2.03,1770369794.11977
0.48434,-0.056852,0.924028,-0.77,-1.89,0.42,1770369794.127767
0.486048,-0.051972,0.924028,0.98,-1.19,-1.54,1770369794.135788
0.48434,-0.053924,0.926224,-1.54,0.07,-2.38,1770369794.143882
0.482144,-0.052216,0.923296,0.21,0.56,-0.35,1770369794.151807
0.480192,-0.054412,0.922564,0.77,0.28,-0.7,1770369794.159779
0.47092,-0.053924,0.918904,1.26,-0.77,-3.5,1770369794.167777
0.472872,-0.055632,0.917684,0.56,-0.91,0.7,1770369794.175776
0.47336,-0.052948,0.925736,-0.21,-0.35,-2.24,1770369794.183783
0.476776,-0.05124,0.925004,0.77,-0.98,0.07,1770369794.191828
0.477264,-0.050996,0.924516,0.21,-0.98,-1.33,1770369794.199778
0.477752,-0.05002,0.926224,-0.21,-1.54,0.98,1770369794.207767
0.476532,-0.052948,0.922808,0.0,-0.21,-1.96,1770369794.215825
0.475556,-0.053192,0.919148,-2.03,0.0,0.14,1770369794.223782
0.474092,-0.050996,0.919148,0.35,-0.77,-2.17,1770369794.231782
0.47214,-0.055144,0.921832,0.63,0.21,-0.91,1770369794.239802
0.473116,-0.051972,0.926224,-0.63,0.35,-0.14,1770369794.247871
0.474336,-0.050264,0.92964,2.31,-0.77,0.21,1770369794.255785
0.476776,-0.050264,0.927932,-1.12,0.0,-0.91,1770369794.263779
0.475312,-0.051484,0.930372,1.33,0.0,-2.17,1770369794.27178
0.47824,-0.048556,0.927444,0.07,0.35,-2.94,1770369794.279779
0.478484,-0.051972,0.928908,0.77,-0.35,-1.68,1770369794.287785
0.482876,-0.052948,0.932568,-1.12,0.42,-3.29,1770369794.296106
0.488488,-0.05002,0.940132,-2.03,0.98,0.21,1770369794.303767
0.491172,-0.04758,0.942572,0.0,2.24,-2.03,1770369794.311808
0.4941,-0.043432,0.939888,-0.21,3.57,-1.68,1770369794.319861
0.494588,-0.043432,0.938668,-2.87,3.22,0.98,1770369794.327775
0.497028,-0.047092,0.9333,-4.13,5.46,-4.76,1770369794.335776
0.499224,-0.056852,0.9272,-3.22,5.74,-1.33,1770369794.343802
0.50386,-0.066368,0.921832,-3.57,7.35,-3.57,1770369794.351784
0.503128,-0.074176,0.918172,-3.99,9.73,-2.38,1770369794.359777
0.504348,-0.075396,0.918172,-5.81,9.94,-1.12,1770369794.367772
0.499956,-0.080276,0.914512,-4.9,11.55,-2.17,1770369794.375767
0.500444,-0.081984,0.91012,-7.35,11.41,0.21,1770369794.383803
0.501176,-0.076128,0.910608,-5.11,11.2,0.21,1770369794.391793
0.503128,-0.07198,0.91866,-5.25,11.76,0.0,1770369794.399784
0.496784,-0.066856,0.92476,-6.23,13.3,0.56,1770369794.407805
0.498492,-0.062708,0.929152,-6.44,13.65,-0.28,1770369794.415783
0.494588,-0.065636,0.92842,-7.35,16.030001,0.84,1770369794.423837
0.490684,-0.070272,0.929884,-6.02,16.66,-0.35,1770369794.431784
0.48434,-0.069296,0.934276,-7.56,18.83,-0.35,1770369794.439786
0.477752,-0.07198,0.94306,-6.58,18.83,1.68,1770369794.447825
0.47336,-0.071492,0.95038,-8.82,17.360001,-1.19,1770369794.455818
0.469212,-0.077592,0.9516,-9.59,18.620001,0.91,1770369794.463782
0.463112,-0.081252,0.947452,-7.7,17.15,-0.49,1770369794.471781
0.463112,-0.084424,0.94672,-8.19,15.26,-1.33,1770369794.4798
0.465552,-0.088816,0.945988,-9.03,14.98,-1.96,1770369794.487933
0.464576,-0.080276,0.939156,-9.45,14.28,-1.61,1770369794.495813
0.4636,-0.078568,0.937204,-10.01,13.58,-1.47,1770369794.503771
0.470676,-0.07686,0.937936,-10.71,12.74,-3.71,1770369794.511821
0.473604,-0.073444,0.938668,-10.29,13.3,-1.4,1770369794.519862
0.474336,-0.079544,0.926956,-11.9,13.58,-1.61,1770369794.527792
0.47336,-0.081252,0.9211,-12.88,11.06,-3.85,1770369794.535781
0.479216,-0.085156,0.9211,-13.09,13.09,-2.73,1770369794.543783
0.4819,-0.085644,0.925248,-11.41,13.16,-2.94,1770369794.551788
0.482388,-0.081984,0.928664,-12.67,14.14,-3.15,1770369794.5599
0.48312,-0.075884,0.928176,-12.46,15.05,0.63,1770369794.567778
0.474336,-0.076372,0.922808,-13.23,15.19,-2.38,1770369794.575781
0.469944,-0.074176,0.918416,-14.28,16.24,0.35,1770369794.583782
0.462868,-0.074908,0.920612,-12.53,17.290001,0.0,1770369794.591778
0.456524,-0.07442,0.922808,-14.07,18.129999,0.42,1770369794.599807
0.449692,-0.076372,0.92354,-12.18,18.059999,-0.21,1770369794.6078
0.4392,-0.078324,0.926468,-13.44,18.129999,2.59,1770369794.615888
0.427732,-0.080032,0.931348,-15.12,20.02,1.33,1770369794.623779
0.412848,-0.083448,0.92964,-13.09,19.950001,2.1,1770369794.631794
0.398208,-0.086864,0.927688,-15.19,21.280001,4.69,1770369794.639784
0.382592,-0.101504,0.931348,-14.42,21.139999,5.04,1770369794.647811
0.369416,-0.113704,0.935496,-12.95,21.139999,4.97,1770369794.655928
0.356484,-0.127124,0.935496,-13.65,20.23,4.83,1770369794.663782
0.347456,-0.1342,0.939156,-9.66,18.059999,7.28,1770369794.671885
0.340868,-0.142252,0.945256,-10.99,15.12,4.97,1770369794.679784
0.338672,-0.153964,0.953796,-10.01,14.42,10.36,1770369794.687828
0.330376,-0.156648,0.957456,-8.33,11.34,6.3,1770369794.69584
0.33062,-0.160308,0.963312,-9.87,8.54,10.78,1770369794.703855
0.33794,-0.163968,0.968924,-7.42,5.67,7.07,1770369794.711776
0.34526,-0.161528,0.978928,-6.65,3.22,9.45,1770369794.719785
0.353068,-0.158112,0.992104,-6.09,0.98,11.13,1770369794.727781
0.361364,-0.148108,1.003816,-5.53,0.49,9.66,1770369794.735806
0.366732,-0.138104,1.005524,-7.49,-0.42,11.55,1770369794.743782
0.366244,-0.130784,0.999424,-5.25,-1.54,9.31,1770369794.751788
0.365268,-0.12444,0.986248,-6.02,-2.31,12.81,1770369794.75981
0.37332,-0.122,0.97966,-6.02,-4.41,10.92,1770369794.767782
0.38674,-0.11712,0.966484,-5.67,-5.53,10.5,1770369794.775783
0.399184,-0.119316,0.952332,-7.14,-5.67,8.4,1770369794.78378
0.40992,-0.114192,0.944524,-4.41,-4.55,8.54,1770369794.791788
0.423584,-0.102968,0.93696,-6.23,-3.36,6.51,1770369794.799907
0.423828,-0.096868,0.931104,-3.92,-1.54,9.31,1770369794.807785
0.425536,-0.097844,0.928908,-4.34,3.29,6.16,1770369794.815785
0.425536,-0.09638,0.92354,-5.74,7.84,5.74,1770369794.823782
0.421388,-0.085888,0.928664,-2.38,12.74,5.11,1770369794.831768
0.41236,-0.084668,0.937204,-3.78,17.08,3.78,1770369794.840127
0.401624,-0.08906,0.948184,-6.3,20.440001,3.22,1770369794.8478
0.387228,-0.09272,0.9516,-5.25,23.940001,2.8,1770369794.855783
0.366244,-0.098332,0.950624,-6.37,27.58,4.41,1770369794.863783
0.34282,-0.101016,0.941596,-4.9,30.450001,2.38,1770369794.87177
0.314028,-0.102724,0.9333,-4.76,31.57,6.3,1770369794.879788
0.294996,-0.114436,0.932324,-2.31,31.85,6.72,1770369794.887818
0.27572,-0.123708,0.935984,-2.59,31.15,6.72,1770369794.895977
0.264252,-0.133712,0.949648,-3.08,30.450001,4.27,1770369794.903774
0.252052,-0.135176,0.962824,-0.56,28.629999,4.13,1770369794.911794
0.243024,-0.13176,0.976244,0.77,26.25,7.14,1770369794.919807
0.238388,-0.127124,0.990152,1.96,23.030001,6.72,1770369794.927783
0.233996,-0.121268,1.002108,2.31,19.809999,6.16,1770369794.935869
0.237168,-0.112484,1.00162,-0.63,17.219999,6.09,1770369794.943789
0.23912,-0.113704,1.001376,-0.91,13.86,8.19,1770369794.95179
0.24522,-0.113948,1.007232,0.14,10.71,6.86,1770369794.959784
0.252296,-0.11712,1.01626,0.07,7.21,10.99,1770369794.967834
0.264252,-0.115168,1.025288,0.56,4.62,7.63,1770369794.975788
0.273768,-0.112728,1.031876,-1.12,4.13,11.76,1770369794.983782
0.281576,-0.104432,1.038952,0.56,2.31,8.96,1770369794.991781
0.288164,-0.099796,1.04798,0.49,1.96,10.57,1770369794.999835
0.294264,-0.09638,1.04432,-0.56,2.87,10.92,1770369795.007779
0.298168,-0.095404,1.038952,-0.35,3.36,9.87,1770369795.015784
0.30378,-0.094672,1.031632,-1.33,5.11,10.36,1770369795.023839
0.309148,-0.101504,1.022848,-0.21,5.95,8.4,1770369795.031811
0.311588,-0.100284,1.006012,-1.12,6.65,9.24,1770369795.039789
0.316956,-0.111508,0.995276,-0.84,7.07,6.37,1770369795.047795
0.326228,-0.118584,0.988688,0.7,6.09,5.18,1770369795.055785
0.325008,-0.12322,0.98454,0.0,8.4,3.22,1770369795.063923
0.325252,-0.125416,0.977708,1.12,11.27,5.04,1770369795.071934
0.315248,-0.127856,0.970632,0.35,12.95,5.04,1770369795.079886
0.299632,-0.131028,0.960628,-0.77,17.92,5.25,1770369795.087788
0.283528,-0.13664,0.96502,0.91,18.83,6.93,1770369795.095796
0.259616,-0.14518,0.964288,-1.82,20.58,7.21,1770369795.103779
0.240096,-0.155184,0.959652,0.91,22.610001,6.37,1770369795.111801
0.216916,-0.162504,0.948916,0.84,21.139999,6.37,1770369795.119895
0.199836,-0.169092,0.943792,0.91,20.02,8.4,1770369795.12778
0.181292,-0.173728,0.945256,2.87,17.360001,7.77,1770369795.13578
0.166652,-0.17446,0.948672,2.8,14.49,9.45,1770369795.143779
0.156648,-0.171044,0.962336,4.34,11.2,8.05,1770369795.151812
0.148352,-0.16592,0.96868,3.36,7.63,10.78,1770369795.159774
0.14152,-0.164456,0.971364,5.32,2.8,11.34,1770369795.167772
0.140544,-0.16348,0.968436,4.83,-1.96,11.13,1770369795.175771
0.142496,-0.160064,0.971608,4.2,-5.53,15.26,1770369795.183774
0.15128,-0.15738,0.973072,5.46,-12.11,10.36,1770369795.191921
0.162504,-0.15616,0.983564,4.2,-13.86,13.44,1770369795.199803
0.179828,-0.150548,0.999912,5.46,-16.940001,11.69,1770369795.207769
0.19642,-0.149816,1.007476,4.41,-18.620001,12.53,1770369795.215775
0.211548,-0.148596,1.01016,4.55,-19.67,8.61,1770369795.223765
0.230824,-0.150548,1.01016,5.18,-22.4,9.45,1770369795.231809
0.245952,-0.153476,1.00528,5.53,-23.17,9.52,1770369795.239804
0.262544,-0.153964,1.002596,7.21,-23.17,9.31,1770369795.247785
0.274256,-0.152988,1.003816,7.42,-23.73,8.05,1770369795.255885
0.29158,-0.152012,1.007232,4.97,-22.120001,4.13,1770369795.263798
0.305,-0.153476,1.01138,6.23,-20.65,6.16,1770369795.271778
0.312076,-0.152744,1.010892,6.51,-18.549999,3.92,1770369795.279776
0.314272,-0.14884,1.01016,6.02,-17.219999,3.5,1770369795.287772
0.31842,-0.147376,1.012844,6.37,-16.870001,2.8,1770369795.295829
0.321592,-0.148108,1.00772,4.2,-14.49,4.55,1770369795.303775
0.318664,-0.147864,1.002596,5.67,-12.18,4.76,1770369795.311788
0.318908,-0.149328,0.995764,6.3,-12.46,3.36,1770369795.319774
0.31354,-0.150792,0.992104,3.57,-10.78,5.46,1770369795.327773
0.30866,-0.15616,0.990884,4.2,-10.78,1.89,1770369795.33577
0.305732,-0.156404,0.991128,4.76,-11.76,4.13,1770369795.343945
0.303292,-0.154696,0.995764,4.55,-10.29,2.8,1770369795.351777
0.302072,-0.1525,0.999424,4.62,-9.45,1.12,1770369795.359779
0.303536,-0.151036,1.00406,4.69,-10.85,1.33,1770369795.367774
0.300852,-0.147132,0.995276,4.69,-11.27,1.89,1770369795.375767
0.299632,-0.144204,0.982832,4.13,-10.36,3.01,1770369795.383791
0.304756,-0.142984,0.970876,4.76,-11.41,-0.21,1770369795.391891
0.308416,-0.14396,0.967704,5.67,-11.62,2.31,1770369795.400042
0.319152,-0.14152,0.965996,6.44,-11.55,-1.47,1770369795.407781
0.327936,-0.138836,0.976,7.91,-9.73,3.15,1770369795.415836
0.333304,-0.132736,0.975024,7.07,-10.78,0.91,1770369795.423944
0.334036,-0.134688,0.964776,6.23,-9.66,-0.28,1770369795.431784
0.332816,-0.140544,0.951844,5.32,-8.96,0.35,1770369795.43979
0.328912,-0.1525,0.93086,4.97,-4.2,-0.49,1770369795.447818
0.323056,-0.173728,0.905728,5.53,-1.4,-3.01,1770369795.455929
0.324276,-0.194224,0.887916,7.91,1.54,-2.52,1770369795.46379
0.325008,-0.19764,0.900604,11.76,5.32,-2.52,1770369795.471782
0.322812,-0.187148,0.9394,13.3,6.23,-1.47,1770369795.479782
0.321348,-0.17202,0.993568,13.51,6.44,-2.94,1770369795.487786
0.320128,-0.160552,1.039196,12.11,5.67,2.8,1770369795.495944
0.313784,-0.15006,1.070916,6.65,5.18,2.45,1770369795.503777
0.30744,-0.15738,1.080188,4.2,2.66,2.24,1770369795.511791
0.307684,-0.167628,1.06506,0.91,-0.98,3.01,1770369795.519776
0.308904,-0.19398,1.034316,2.66,-3.78,4.69,1770369795.527846
0.312076,-0.21472,1.003084,4.76,-9.45,0.63,1770369795.53579
0.317932,-0.232532,0.970144,4.55,-12.88,6.93,1770369795.54378
0.327936,-0.25254,0.938424,7.56,-14.98,1.4,1770369795.551816
0.3477,-0.2684,0.914756,10.22,-17.5,5.18,1770369795.559801
0.365512,-0.277672,0.913292,10.78,-18.27,3.22,1770369795.567788
0.386984,-0.285724,0.926712,12.74,-16.870001,2.24,1770369795.575783
0.4026,-0.288164,0.931836,13.51,-16.379999,3.57,1770369795.583829
0.413824,-0.30256,0.941596,17.85,-13.72,3.57,1770369795.591788
0.435784,-0.297192,0.944768,18.690001,-12.95,5.04,1770369795.599812
0.454328,-0.292556,0.948672,19.530001,-13.44,5.74,1770369795.607779
0.477264,-0.302804,0.957944,19.74,-13.09,6.02,1770369795.615817
0.494344,-0.290848,0.934276,20.719999,-11.62,10.01,1770369795.623779
0.526064,-0.280844,0.920612,22.049999,-11.62,9.87,1770369795.631785
0.544364,-0.26962,0.901336,22.049999,-8.19,13.93,1770369795.639802
0.556076,-0.243024,0.890112,18.690001,-2.31,14.28,1770369795.647923
0.551684,-0.225456,0.87596,16.1,5.11,13.79,1770369795.655776
0.526064,-0.185196,0.828136,11.2,17.85,21.209999,1770369795.66378
0.502152,-0.137616,0.77104,10.99,32.130001,16.870001,1770369795.671952
0.467504,-0.07808,0.72224,6.86,46.759998,21.139999,1770369795.679774
0.411628,-0.0122,0.697108,0.98,62.16,18.969999,1770369795.687782
0.334768,0.041968,0.691496,-5.53,80.989998,17.709999,1770369795.695784
0.271816,0.066856,0.73444,-17.780001,102.339996,18.200001,1770369795.703809
0.21472,0.083936,0.865712,-25.41,122.43,18.76,1770369795.71182
0.13786,0.106384,1.029192,-38.990002,133.350006,16.24,1770369795.719782
0.073444,0.114924,1.184376,-54.32,135.380005,1.96,1770369795.727784
-0.011468,0.08906,1.324676,-62.860001,128.660004,-1.82,1770369795.735765
-0.103212,0.014396,1.42252,-66.360001,117.459999,-15.96,1770369795.743827
-0.156648,-0.088328,1.4579,-60.41,93.940002,-20.02,1770369795.751789
-0.180316,-0.183976,1.43228,-44.869999,62.509998,-20.860001,1770369795.759783
-0.172996,-0.24156,1.407148,-30.52,23.17,-10.71,1770369795.767781
-0.105408,-0.30378,1.430816,-11.2,-20.51,-4.48,1770369795.775852
0.002196,-0.381128,1.5006,-2.38,-53.34,12.88,1770369795.783775
0.139812,-0.443836,1.5555,14.77,-72.940002,21.35,1770369795.791768
0.27084,-0.469212,1.549888,25.200001,-73.150002,33.25,1770369795.800058
0.366488,-0.428952,1.491816,32.200001,-58.869999,38.43,1770369795.807795
0.427488,-0.34282,1.401536,28.42,-29.049999,46.41,1770369795.815789
0.4331,-0.254004,1.292956,11.55,6.86,56.279999,1770369795.823785
0.379908,-0.1708,1.176324,-2.52,43.82,64.610001,1770369795.831796
0.27694,-0.12078,1.074088,-18.200001,76.580002,70.980003,1770369795.840177
0.131272,-0.127612,0.983564,-22.120001,99.400002,76.93,1770369795.84781
-0.014152,-0.177632,0.922564,-20.09,114.379997,84.279999,1770369795.855783
-0.158844,-0.221552,0.887184,-14.63,121.589996,85.889999,1770369795.863788
-0.288652,-0.247904,0.858636,-3.99,119.209999,88.690002,1770369795.871885
-0.39284,-0.24644,0.837896,7.42,107.519997,93.940002,1770369795.879827
-0.481656,-0.217648,0.828868,13.79,86.940002,102.900002,1770369795.887782
-0.540948,-0.181536,0.796904,17.43,60.689999,107.660004,1770369795.895811
-0.566568,-0.1586,0.772016,20.790001,32.34,116.480003,1770369795.903813
-0.559736,-0.149816,0.766404,25.620001,3.22,121.589996,1770369795.911794
-0.509472,-0.159088,0.778116,29.959999,-24.5,124.949997,1770369795.919783
-0.44774,-0.161528,0.814716,35.490002,-49.630001,132.720001,1770369795.927843
-0.387228,-0.142252,0.789096,41.650002,-69.720001,126.419998,1770369795.935789
-0.306464,-0.109556,0.748836,43.259998,-87.080002,122.010002,1770369795.943779
-0.198372,-0.079788,0.7564,48.860001,-102.059998,113.959999,1770369795.951784
-0.076616,-0.075884,0.817156,56.84,-112.0,112.07,1770369795.959782
0.048312,-0.054168,0.868152,62.299999,-121.029999,107.309998,1770369795.96783
0.148352,-0.011712,0.891332,64.82,-128.100006,102.620003,1770369795.975791
0.233508,0.036844,0.883036,62.720001,-127.540001,98.769997,1770369795.983787
0.30378,0.073932,0.861564,60.41,-121.239998,91.0,1770369795.991785
0.366488,0.0732,0.855708,56.98,-108.779999,87.779999,1770369795.999846
0.41602,0.061732,0.895236,54.810001,-89.669998,81.830002,1770369796.007806
0.446032,0.043188,0.980636,58.169998,-64.82,75.809998,1770369796.015787
0.448716,0.047824,1.07726,58.380001,-38.779999,75.949997,1770369796.023817
0.417484,0.051972,1.128256,64.260002,-19.040001,70.980003,1770369796.031801
0.371612,0.056852,1.152412,69.160004,-10.08,73.5,1770369796.039799
0.327204,0.056608,1.192916,70.559998,-5.46,78.68,1770369796.047923
0.293044,0.037088,1.244156,77.489998,-9.87,80.57,1770369796.05578
0.269864,-0.000976,1.281976,83.019997,-15.12,83.860001,1770369796.064106
0.261812,-0.047336,1.312476,91.559998,-19.809999,87.290001,1770369796.071884
0.268644,-0.090036,1.284904,101.919998,-22.26,91.139999,1770369796.079897
0.284992,-0.111508,1.2261,111.300003,-24.5,92.050003,1770369796.087784
0.30134,-0.121268,1.201212,122.080002,-27.719999,94.360001,1770369796.095787
0.328668,-0.10492,1.21146,127.68,-27.93,95.059998,1770369796.103921
0.349896,-0.07442,1.19804,133.770004,-28.91,87.010002,1770369796.111783
0.377712,-0.025132,1.165832,136.850006,-27.09,82.040001,1770369796.11978
0.398208,0.071004,1.115568,138.740005,-21.42,79.870003,1770369796.127779
0.411628,0.210816,1.053592,141.679993,-12.32,75.879997,1770369796.135782
0.415288,0.345504,0.998936,139.440002,-0.63,75.739998,1770369796.143762
0.397476,0.460184,0.92842,133.0,8.4,75.18,1770369796.151785
0.381372,0.571692,0.8723,122.849998,19.74,72.940002,1770369796.159875
0.352336,0.66734,0.844728,110.040001,33.880001,71.470001,1770369796.167772
0.309148,0.742004,0.820084,96.669998,43.959999,69.580002,1770369796.175777
0.265472,0.791292,0.793732,79.239998,51.380001,69.440002,1770369796.183777
0.223504,0.831552,0.753716,63.700001,54.25,65.309998,1770369796.191806
0.187392,0.844728,0.723704,49.279999,54.389999,68.18,1770369796.199926
0.155916,0.845216,0.704428,36.959999,55.860001,70.349998,1770369796.207794
0.125904,0.839604,0.670268,29.540001,54.810001,75.529999,1770369796.21578
0.098088,0.831552,0.587552,21.07,51.52,83.580002,1770369796.223776
0.06832,0.807884,0.476044,12.18,45.290001,88.620003,1770369796.231809
0.05246,0.770308,0.415044,4.2,35.139999,91.349998,1770369796.239778
0.0427,0.74298,0.427488,-5.46,27.370001,96.599998,1770369796.247771
0.040016,0.703208,0.525576,-14.07,22.82,97.580002,1770369796.255842
0.030744,0.64904,0.67954,-23.66,20.02,99.75,1770369796.263772
0.015128,0.58682,0.832284,-29.33,18.059999,97.089996,1770369796.271774
-0.000732,0.508252,0.935008,-35.419998,13.3,94.709999,1770369796.279805
0.004148,0.442616,0.980636,-37.310001,7.56,85.82,1770369796.28778
0.010248,0.32452,1.002352,-34.02,-1.26,76.089996,1770369796.295858
0.030012,0.19276,0.988932,-29.190001,-10.01,62.790001,1770369796.30383
0.054168,0.01342,0.987468,-20.440001,-17.43,53.200001,1770369796.31179
0.10004,-0.146156,0.981612,-9.45,-24.01,42.91,1770369796.319779
0.14762,-0.273768,1.012844,2.52,-28.07,36.259998,1770369796.327786
0.195444,-0.363804,1.062132,15.54,-26.950001,34.02,1770369796.335895
0.229604,-0.434076,1.131672,28.77,-22.610001,34.580002,1770369796.343788
0.249124,-0.486536,1.195844,38.080002,-16.309999,34.580002,1770369796.351782
0.247416,-0.483852,1.214876,42.98,-5.67,33.880001,1770369796.359779
0.223992,-0.425292,1.239032,44.939999,8.47,39.970001,1770369796.367768
0.174216,-0.3599,1.25538,40.529999,24.780001,40.669998,1770369796.375782
0.107604,-0.297192,1.247084,31.43,38.080002,46.830002,1770369796.383903
0.025864,-0.245464,1.22488,23.309999,48.509998,48.650002,1770369796.391788
-0.057096,-0.192028,1.2078,17.43,50.75,51.59,1770369796.399799
-0.135908,-0.117852,1.239276,13.23,46.619999,51.73,1770369796.407807
-0.193004,-0.0488,1.342,10.99,37.450001,51.099998,1770369796.415898
-0.22326,0.005368,1.46034,7.0,21.139999,49.91,1770369796.423784
-0.23302,0.05856,1.519144,7.42,-2.31,43.610001,1770369796.431812
-0.216428,0.118096,1.512556,6.51,-34.580002,38.220001,1770369796.439812
-0.16226,0.184708,1.413248,6.65,-64.400002,36.049999,1770369796.447946
-0.071736,0.208376,1.291736,5.11,-93.029999,32.900002,1770369796.455776
0.037332,0.216184,1.176812,9.17,-119.139999,29.889999,1770369796.463782
0.152012,0.234728,1.05774,14.63,-142.169998,28.209999,1770369796.471786
0.264496,0.251564,0.965996,14.98,-160.369995,25.83,1770369796.479842
0.385276,0.282552,0.911828,17.5,-169.259995,23.379999,1770369796.487779
0.50264,0.311344,0.857416,15.05,-171.220001,26.18,1770369796.495778
0.61732,0.335744,0.794464,9.31,-168.210007,21.559999,1770369796.504089
0.70394,0.340136,0.71614,2.31,-157.220001,22.120001,1770369796.5118
0.772504,0.319396,0.62098,-2.31,-140.630005,23.030001,1770369796.519785
0.828624,0.301584,0.534604,-5.81,-122.709999,26.25,1770369796.527786
0.876204,0.28182,0.476532,-5.25,-106.470001,23.379999,1770369796.535789
0.922808,0.263764,0.45994,-4.13,-89.879997,21.700001,1770369796.543791
0.976976,0.247172,0.497028,0.49,-73.360001,17.639999,1770369796.551784
1.035292,0.216184,0.569984,5.74,-52.919998,14.35,1770369796.559782
1.07848,0.198128,0.609268,7.14,-33.459999,15.96,1770369796.567814
1.086044,0.185196,0.586332,11.62,-10.08,14.14,1770369796.575909
1.070672,0.160796,0.530944,11.06,8.75,15.4,1770369796.583781
1.045784,0.144448,0.521916,11.62,32.130001,17.639999,1770369796.591791
1.023092,0.109068,0.578768,10.5,53.970001,22.26,1770369796.599782
0.992104,0.08296,0.6649,7.28,77.559998,25.76,1770369796.607915
0.934032,0.058804,0.744932,5.25,99.400002,27.09,1770369796.615817
0.849608,0.04026,0.797636,3.29,119.769997,32.27,1770369796.623772
0.747128,0.0244,0.829112,4.83,135.169998,29.120001,1770369796.631795
0.643184,0.01952,0.869128,2.45,151.130005,32.549999,1770369796.639783
0.536312,0.01952,0.933056,3.22,163.520004,27.299999,1770369796.647802
0.413824,0.020252,0.983564,-1.19,173.320007,26.18,1770369796.655769
0.286212,0.020984,0.986004,-3.64,179.410004,20.790001,1770369796.663786
0.170068,0.023424,0.980392,-3.92,179.899994,15.4,1770369796.671769
0.06588,0.021716,0.985028,-7.14,173.809998,13.37,1770369796.67979
-0.017324,-0.008784,1.023336,-6.44,160.649994,10.99,1770369796.68779
-0.0793,-0.038796,1.086532,-7.91,141.610001,13.23,1770369796.695844
-0.116388,-0.053192,1.163636,-8.12,115.779999,9.31,1770369796.703801
-0.138348,-0.034648,1.22488,-5.04,84.559998,15.82,1770369796.711806
-0.143472,0.010492,1.25782,-5.81,51.169998,16.17,1770369796.719784
-0.133468,0.069784,1.258796,-7.91,15.05,20.440001,1770369796.72778
-0.098332,0.099308,1.230492,-11.62,-13.86,22.469999,1770369796.735783
-0.034892,0.110532,1.194624,-14.35,-34.369999,24.92,1770369796.743818
0.042212,0.12444,1.158756,-14.0,-50.189999,22.33,1770369796.751776
0.11956,0.1281,1.141188,-13.44,-55.299999,20.02,1770369796.759791
0.19764,0.122732,1.112884,-13.09,-52.639999,18.9,1770369796.767789
0.267668,0.124196,1.090436,-9.24,-42.98,13.44,1770369796.775899
0.325252,0.14518,1.070184,-9.1,-28.07,10.71,1770369796.783779
0.37698,0.168848,1.046028,-4.69,-10.08,3.85,1770369796.791788
0.410652,0.19764,1.019188,-2.8,7.07,2.17,1770369796.799786
0.417484,0.220332,1.003084,-1.54,26.18,0.91,1770369796.807831
0.403332,0.222284,0.975512,0.98,42.07,-1.68,1770369796.815975
0.367952,0.201056,0.940376,1.33,56.490002,-2.59,1770369796.823783
0.321592,0.175924,0.905728,4.41,68.529999,-2.52,1770369796.831786
0.267424,0.158356,0.864492,9.1,80.080002,-1.26,1770369796.839796
0.195932,0.140056,0.815204,8.4,88.620003,-0.35,1770369796.847947
0.114924,0.132004,0.787876,10.85,95.480003,3.78,1770369796.85578
0.035136,0.123952,0.801296,10.5,101.290001,6.02,1770369796.863783
-0.049776,0.13298,0.838872,11.76,103.529999,5.95,1770369796.871773
-0.117608,0.144936,0.906948,13.3,101.639999,5.81,1770369796.879786
-0.200568,0.1708,0.950136,12.67,99.190002,7.0,1770369796.887798
-0.280112,0.185928,0.977708,12.88,92.400002,7.63,1770369796.895785
-0.354288,0.2196,1.001132,10.64,84.559998,2.38,1770369796.903826
-0.419192,0.233996,1.020164,11.83,72.309998,0.63,1770369796.911794
-0.478728,0.246684,1.017236,12.88,60.830002,-3.29,1770369796.919812
-0.527772,0.271816,1.005768,16.309999,44.310001,-6.86,1770369796.927778
-0.561932,0.290848,0.996008,16.73,25.129999,-13.44,1770369796.935784
-0.56974,0.288164,1.023824,14.07,5.18,-19.67,1770369796.943793
-0.558516,0.2745,1.02846,10.15,-14.21,-26.110001,1770369796.951892
-0.51484,0.243024,1.037976,4.41,-35.209999,-30.24,1770369796.959786
-0.43798,0.197884,1.0675,-0.98,-54.669998,-34.93,1770369796.967787
-0.347456,0.148108,1.102392,-4.34,-74.269997,-32.41,1770369796.975849
-0.246928,0.160064,1.120204,-8.54,-89.25,-31.5,1770369796.983789
-0.116144,0.1891,1.109468,-7.0,-102.970001,-29.82,1770369796.991789
0.0122,0.231068,1.079456,-10.01,-117.669998,-22.4,1770369796.999771
0.129076,0.254736,1.027728,-14.07,-126.980003,-9.66,1770369797.00786
0.24034,0.24888,0.970632,-18.48,-134.75,-0.7,1770369797.015805
0.3355,0.176656,0.935984,-25.76,-133.770004,6.51,1770369797.023796
0.417484,0.085888,0.940864,-24.01,-124.809998,12.95,1770369797.031786
0.474824,0.019764,0.931836,-24.290001,-107.800003,15.75,1770369797.039922
0.515816,-0.011956,0.896944,-17.360001,-83.93,12.46,1770369797.047793
0.54412,-0.059048,0.888892,-14.21,-60.970001,15.4,1770369797.055783
0.538996,-0.049776,0.89548,-15.68,-38.360001,10.36,1770369797.063953
0.530456,-0.019032,0.947208,-15.96,-17.92,2.8,1770369797.071886
0.51362,0.020252,1.01016,-18.34,1.47,3.01,1770369797.079815
0.480436,0.03538,1.044564,-25.34,21.209999,-0.56,1770369797.087913
0.436272,0.026108,1.046516,-27.719999,35.77,-3.92,1770369797.095788
0.387716,0.000244,1.067744,-28.0,45.080002,-1.75,1770369797.103841
0.317444,-0.023912,1.085068,-24.08,47.529999,-9.8,1770369797.111828
0.24278,-0.021228,1.064572,-24.01,43.959999,-13.93,1770369797.119789
0.177876,-0.0122,1.036756,-19.110001,39.34,-15.19,1770369797.127796
0.12932,-0.003904,1.016504,-17.15,31.219999,-17.290001,1770369797.135782
0.088084,0.003416,0.988444,-18.34,20.02,-19.67,1770369797.143828
0.065148,0.003172,0.949892,-14.42,7.0,-19.6,1770369797.151807
0.0549,-0.00366,0.931836,-11.55,-5.67,-17.780001,1770369797.159766
0.065148,0.000732,0.943304,-10.08,-18.41,-19.25,1770369797.167772
0.091988,0.019032,0.969412,-8.54,-32.689999,-16.73,1770369797.175777
0.11956,0.035624,0.978684,-8.75,-45.779999,-15.54,1770369797.183776
0.156648,0.039772,0.96502,-7.98,-57.119999,-13.16,1770369797.191801
0.20984,0.030744,0.932324,-7.35,-66.43,-13.86,1770369797.199883
0.263276,0.031476,0.909876,-3.99,-77.910004,-11.34,1770369797.207792
0.32696,0.035136,0.897676,-0.98,-85.260002,-14.98,1770369797.215792
0.388692,0.053436,0.8967,1.75,-88.269997,-10.78,1770369797.223859
0.449692,0.083204,0.889868,6.02,-89.739998,-13.37,1770369797.231813
0.50386,0.113216,0.867908,8.96,-86.589996,-11.34,1770369797.239779
0.552416,0.131272,0.848144,10.08,-80.220001,-9.24,1770369797.247776
0.594384,0.156648,0.827404,10.01,-71.260002,-6.3,1770369797.25578
0.634644,0.17812,0.837408,8.61,-58.869999,-4.97,1770369797.263819
0.66734,0.190808,0.861564,8.75,-45.849998,-2.8,1770369797.271791
0.69296,0.196908,0.87352,7.77,-32.130001,1.47,1770369797.279772
0.701012,0.198616,0.894992,3.22,-17.85,0.77,1770369797.287777
0.705892,0.202276,0.918904,3.57,-5.81,9.45,1770369797.295803
0.699548,0.187392,0.936716,2.66,4.27,15.96,1770369797.303776
0.680028,0.171532,0.92964,6.44,13.16,20.65,1770369797.311794
0.64416,0.143228,0.88328,9.24,19.950001,30.24,1770369797.319784
0.593164,0.12688,0.83326,13.09,27.02,33.599998,1770369797.327777
0.5429,0.11956,0.83204,15.26,33.32,33.459999,1770369797.335774
0.498004,0.137616,0.9028,16.940001,39.549999,36.400002,1770369797.344089
0.4636,0.18056,0.981856,12.18,44.310001,36.400002,1770369797.351786
0.413824,0.218868,1.012112,7.0,50.189999,35.560001,1770369797.359777
0.362584,0.231068,1.000888,0.56,53.830002,35.139999,1770369797.367777
0.31354,0.214476,0.996496,-5.81,59.849998,33.040001,1770369797.375805
0.266204,0.179828,1.00894,-15.12,66.709999,29.540001,1770369797.383828
0.225212,0.126392,1.036756,-16.17,70.559998,25.41,1770369797.391789
0.19032,0.079544,1.06872,-19.110001,74.199997,22.889999,1770369797.399782
0.1464,0.05002,1.079456,-18.690001,77.139999,16.379999,1770369797.407797
0.10736,0.030988,1.065548,-14.42,77.139999,19.32,1770369797.415828
0.063684,0.04148,1.053836,-8.75,75.809998,17.709999,1770369797.423788
0.023668,0.07686,1.05652,-2.24,65.589996,18.969999,1770369797.431774
-0.009028,0.134932,1.097756,-2.94,53.900002,16.870001,1770369797.439797
-0.026108,0.179096,1.140944,-6.3,38.43,18.41,1770369797.447841
-0.026352,0.188612,1.169492,-9.45,20.719999,14.84,1770369797.455869
-0.005368,0.154696,1.168272,-14.77,-1.26,17.99,1770369797.463789
0.030012,0.089792,1.154852,-10.22,-17.43,15.05,1770369797.471782
0.081252,0.05002,1.13948,-5.6,-28.07,15.75,1770369797.479775
0.140056,0.020008,1.11142,-0.91,-30.24,15.54,1770369797.487776
0.196176,-0.009028,1.064816,5.46,-26.6,15.61,1770369797.495844
0.253272,-0.030012,1.026264,7.42,-18.969999,14.84,1770369797.503776
0.294752,-0.06222,1.013332,15.54,-8.61,15.61,1770369797.511799
0.321104,-0.069052,1.020896,19.110001,7.21,15.26,1770369797.519819
0.334768,-0.057584,1.019432,23.309999,22.82,17.85,1770369797.527799
0.332328,-0.054656,1.008696,21.07,38.220001,18.41,1770369797.535777
0.30134,-0.062952,0.996496,17.5,54.040001,21.98,1770369797.543797
0.248392,-0.072712,1.000888,17.290001,66.43,22.82,1770369797.551787
0.184952,-0.072224,1.015284,16.450001,79.099998,25.48,1770369797.559779
0.111264,-0.053924,1.027484,14.0,86.099998,27.16,1770369797.567796
0.031232,-0.042212,1.0248,14.98,88.760002,27.790001,1770369797.575806
-0.036844,-0.029036,1.0248,12.18,88.970001,25.969999,1770369797.583783
-0.105896,0.00122,1.031144,15.82,84.629997,23.379999,1770369797.591786
-0.16226,0.049044,1.039928,14.56,78.540001,22.26,1770369797.59978
-0.2135,0.122244,1.054324,12.67,68.040001,20.02,1770369797.608098
-0.253028,0.177144,1.062864,8.4,57.82,20.09,1770369797.615733
-0.288652,0.23302,1.055788,5.25,51.169998,16.379999,1770369797.623781
-0.309148,0.266692,1.023336,4.2,40.950001,7.28,1770369797.631789
-0.326472,0.274012,0.976976,3.08,30.030001,5.6,1770369797.639782
-0.325496,0.25742,0.943548,3.78,16.940001,-5.04,1770369797.647809
-0.306708,0.22936,0.921832,3.99,2.24,-11.55,1770369797.65578
-0.268156,0.201056,0.906216,7.21,-7.42,-20.16,1770369797.663791
-0.222772,0.189344,0.913292,9.94,-17.43,-27.23,1770369797.671891
-0.163236,0.203008,0.939156,12.95,-26.25,-32.130001,1770369797.679817
-0.111996,0.252296,0.9699,11.2,-34.23,-32.27,1770369797.687774
-0.071492,0.299144,0.939156,10.5,-43.610001,-33.18,1770369797.695838
-0.013908,0.287188,0.87596,4.34,-51.169998,-34.93,1770369797.703778
0.046604,0.221064,0.877668,7.42,-58.73,-34.509998,1770369797.71178
0.126636,0.161528,0.9333,7.0,-63.419998,-37.099998,1770369797.719789
0.218624,0.1281,1.002596,4.41,-68.18,-37.66,1770369797.727785
0.303048,0.111996,1.086044,3.43,-67.830002,-39.900002,1770369797.735865
0.377468,0.116632,1.158024,-1.54,-63.84,-39.689999,1770369797.74381
0.439444,0.121024,1.175104,-9.52,-55.09,-42.349998,1770369797.751791
0.478484,0.078568,1.150216,-17.290001,-45.009998,-38.919998,1770369797.759778
0.495076,0.023912,1.114592,-19.879999,-31.57,-43.610001,1770369797.767824
0.492636,-0.01952,1.07726,-22.190001,-17.15,-44.310001,1770369797.775885
0.473848,-0.034404,1.041392,-19.110001,-0.14,-47.18,1770369797.78382
0.438712,-0.018788,1.007476,-14.56,12.04,-51.799999,1770369797.791784
0.388692,0.011712,0.999912,-13.86,19.18,-52.639999,1770369797.79978
0.335256,0.03538,1.021872,-12.81,25.9,-49.77,1770369797.807814
0.284748,0.047336,1.049932,-12.32,28.77,-52.009998,1770369797.8158
0.2379,0.052704,1.056276,-14.77,28.139999,-50.68,1770369797.823924
0.203252,0.041724,1.060668,-12.53,23.73,-47.740002,1770369797.831781
0.190564,0.01708,1.0675,-12.95,11.41,-44.73,1770369797.839784
0.191296,-0.002928,1.071892,-10.08,-4.69,-47.110001,1770369797.847801
0.207156,-0.019764,1.058472,-8.33,-20.51,-38.709999,1770369797.855909
0.223748,-0.015128,1.03456,-6.02,-33.810001,-39.200001,1770369797.863796
0.255468,0.024156,1.017724,-4.55,-44.029999,-33.389999,1770369797.87177
0.287188,0.088572,1.004304,-4.13,-51.029999,-31.290001,1770369797.879787
0.32452,0.160064,0.992836,-8.26,-49.98,-25.9,1770369797.887779
0.364048,0.212036,0.962824,-12.39,-44.799999,-16.1,1770369797.895777
0.394792,0.255712,0.941352,-18.200001,-38.919998,-13.09,1770369797.903814
0.421388,0.272548,0.916464,-21.209999,-33.950001,-1.96,1770369797.911782
0.447496,0.2684,0.891576,-18.34,-28.700001,6.16,1770369797.919802
0.4575,0.25864,0.883524,-16.59,-23.940001,19.110001,1770369797.927785
0.465064,0.238876,0.886452,-8.47,-18.129999,26.74,1770369797.935779
0.465064,0.212524,0.840092,-3.85,-9.31,34.580002,1770369797.94382
0.455548,0.1708,0.785924,2.66,1.89,38.43,1770369797.951769
0.431148,0.142496,0.760304,8.19,14.63,44.59,1770369797.959798
0.399672,0.122488,0.7625,7.91,28.280001,46.060001,1770369797.967781
0.366,0.113704,0.791292,7.98,45.639999,47.740002,1770369797.975781
0.328912,0.110288,0.837164,6.23,58.029999,45.5,1770369797.98385
0.293044,0.082228,0.881328,4.34,68.809998,43.119999,1770369797.991788
0.247416,0.033916,0.937448,3.99,76.440002,44.66,1770369797.999781
0.189588,-0.007808,1.01748,4.48,80.43,45.150002,1770369798.007799
0.111508,-0.011224,1.106784,4.55,82.32,44.380001,1770369798.015782
0.007076,0.022936,1.19316,2.45,84.139999,38.5,1770369798.02384
-0.102968,0.082228,1.253916,-2.66,84.0,31.639999,1770369798.031786
-0.211548,0.135664,1.277096,-13.51,84.419998,20.65,1770369798.039783
-0.288896,0.154452,1.268312,-23.870001,80.010002,8.75,1770369798.047777
-0.345748,0.127368,1.238544,-31.01,68.669998,0.77,1770369798.0559
-0.372344,0.059292,1.220732,-31.290001,49.560001,-5.95,1770369798.064145
-0.37454,-0.012444,1.219024,-26.530001,24.01,-11.27,1770369798.072433
-0.35868,-0.0488,1.220732,-17.639999,-2.8,-9.66,1770369798.079815
-0.309636,-0.05734,1.205116,-8.19,-26.950001,-10.22,1770369798.08783
-0.238876,-0.044408,1.177788,0.91,-47.669998,-7.07,1770369798.095786
-0.159332,-0.027816,1.16754,10.99,-56.490002,-4.06,1770369798.103786
-0.081008,0.00244,1.169492,18.549999,-59.220001,0.42,1770369798.111916
-0.00732,0.038308,1.159732,20.23,-56.630001,1.33,1770369798.119802
0.046116,0.060024,1.136552,16.450001,-46.759998,8.12,1770369798.12779
0.069784,0.07808,1.124108,14.0,-29.4,10.36,1770369798.135943
0.067344,0.086376,1.104344,5.11,-8.89,11.9,1770369798.143777
0.039528,0.092232,1.066036,2.03,8.89,11.9,1770369798.151783
-0.01464,0.090524,1.03334,-5.88,22.469999,13.37,1770369798.159776
-0.089304,0.095648,1.0065,-14.0,29.68,14.84,1770369798.167916
-0.150304,0.099796,1.001132,-20.93,29.120001,14.63,1770369798.175779
-0.20984,0.100528,1.006256,-28.209999,24.01,15.47,1770369798.183758
-0.255956,0.103944,1.00162,-31.57,13.37,13.16,1770369798.19178
-0.290116,0.110776,0.984784,-32.689999,4.69,14.56,1770369798.199778
-0.305732,0.119804,0.947696,-30.1,-2.87,13.3,1770369798.207869
-0.312076,0.12322,0.905484,-24.43,-11.34,7.28,1770369798.215777
-0.306708,0.105652,0.841312,-20.370001,-19.950001,1.12,1770369798.223795
-0.289628,0.077836,0.772016,-13.23,-30.799999,-12.46,1770369798.23178
-0.24888,0.0366,0.734196,-6.23,-45.779999,-20.440001,1770369798.23981
-0.188856,-0.016348,0.720532,0.14,-60.619999,-33.459999,1770369798.247782
-0.118096,-0.062952,0.73932,8.89,-74.059998,-40.599998,1770369798.255837
-0.033672,-0.053924,0.797148,13.51,-83.580002,-50.400002,1770369798.263772
0.05002,0.000732,0.852292,18.969999,-91.07,-55.23,1770369798.271779
0.131516,0.05612,0.89548,21.77,-92.889999,-57.68,1770369798.279792
0.225456,0.086376,0.953796,17.01,-91.419998,-61.529999,1770369798.287765
0.319884,0.06954,1.03456,10.85,-88.970001,-63.07,1770369798.295777
0.412604,0.044164,1.09068,-3.99,-84.699997,-63.139999,1770369798.303797
0.510692,0.020984,1.121912,-14.21,-82.25,-65.309998,1770369798.311792
0.604876,-0.010736,1.130208,-25.620001,-75.879997,-60.130001,1770369798.319791
0.67832,-0.042944,1.08946,-35.209999,-70.07,-51.029999,1770369798.327786
0.707112,-0.06954,1.008452,-41.509998,-59.779999,-44.939999,1770369798.335775
0.700524,-0.09028,0.957212,-46.619999,-44.869999,-36.259998,1770369798.34405
0.68198,-0.09394,0.930616,-45.990002,-23.379999,-33.950001,1770369798.351812
0.63806,-0.079544,0.93452,-45.290001,3.92,-30.870001,1770369798.359778
0.570472,-0.059048,0.948672,-44.310001,32.970001,-31.01,1770369798.367771
0.482144,-0.035136,0.95038,-40.389999,57.189999,-32.48,1770369798.375771
0.36966,-0.005368,0.97112,-38.990002,75.669998,-29.120001,1770369798.383789
0.273524,0.028304,1.057008,-33.110001,84.349998,-36.189999,1770369798.391953
0.176168,0.04514,1.1041,-33.32,81.970001,-32.48,1770369798.399783
0.09028,0.04026,1.122888,-32.689999,69.860001,-38.990002,1770369798.407817
0.04148,0.008784,1.106296,-29.82,47.529999,-35.419998,1770369798.415781
0.028548,-0.035136,1.090924,-23.450001,18.48,-34.369999,1770369798.423876
0.03782,-0.068076,1.079456,-14.63,-14.84,-32.27,1770369798.431823
0.083692,-0.075152,1.058228,-6.65,-47.32,-29.33,1770369798.43978
0.158356,-0.063928,1.028704,-4.41,-73.360001,-23.379999,1770369798.447783
0.246196,-0.038308,1.00284,-6.09,-92.330002,-20.58,1770369798.455861
0.342576,-0.020008,0.965264,-13.09,-101.849998,-15.4,1770369798.46379
0.439444,-0.019276,0.905728,-14.77,-103.809998,-9.59,1770369798.471785
0.503616,-0.033184,0.824964,-18.200001,-98.839996,-5.39,1770369798.479851
0.553148,-0.062952,0.747372,-17.85,-85.470001,-3.71,1770369798.487778
0.586332,-0.101992,0.675148,-8.54,-67.830002,3.15,1770369798.495783
0.61122,-0.133224,0.635864,0.56,-42.560001,5.04,1770369798.503787
0.614148,-0.157624,0.607804,14.91,-13.3,8.4,1770369798.5118
0.601704,-0.176412,0.573888,25.059999,16.73,8.61,1770369798.519791
0.565592,-0.200324,0.53192,33.950001,44.380001,9.45,1770369798.527789
0.519476,-0.223016,0.553636,42.560001,66.5,13.23,1770369798.535787
0.480436,-0.215452,0.68686,47.040001,86.870003,18.200001,1770369798.543834
0.434076,-0.17568,0.878156,48.720001,100.589996,24.639999,1770369798.551798
0.3721,-0.098088,1.098244,43.959999,109.690002,27.790001,1770369798.559785
0.297436,-0.031476,1.242448,33.599998,113.050003,35.84,1770369798.567782
0.22082,0.008296,1.32126,23.52,110.389999,35.84,1770369798.575862
0.129564,0.051484,1.384212,13.09,104.300003,40.950001,1770369798.583816
0.004148,0.08906,1.391288,6.02,94.919998,37.310001,1770369798.59179
-0.127612,0.116876,1.35664,-0.63,90.160004,34.860001,1770369798.599784
-0.250344,0.142496,1.289296,-9.24,86.870003,28.42,1770369798.607828
-0.331352,0.159332,1.195112,-13.72,80.360001,24.5,1770369798.615781
-0.374052,0.172264,1.097756,-11.97,70.0,17.5,1770369798.623775
-0.39528,0.187392,1.031144,-13.02,52.990002,11.13,1770369798.6318
-0.392596,0.204228,1.011868,-15.12,32.130001,14.84,1770369798.63994
-0.362096,0.218624,1.005036,-17.92,7.91,11.69,1770369798.647777
-0.319152,0.229604,0.988444,-17.99,-18.76,13.37,1770369798.655783
-0.277916,0.236192,0.960384,-19.74,-36.82,16.030001,1770369798.663785
-0.227164,0.225944,0.919392,-14.07,-49.560001,14.0,1770369798.67178
-0.157624,0.205692,0.860832,-10.22,-57.189999,15.12,1770369798.679868
-0.088084,0.186904,0.810812,-4.55,-57.959999,21.0,1770369798.687809
-0.038796,0.177388,0.79422,1.19,-53.830002,25.200001,1770369798.695766
-0.01708,0.174704,0.832772,8.4,-42.560001,32.48,1770369798.703785
-0.019764,0.170068,0.908168,12.67,-30.030001,35.700001,1770369798.712015
-0.036112,0.159088,0.987712,14.42,-22.190001,34.369999,1770369798.719797
-0.072956,0.142496,1.064084,14.0,-12.88,30.379999,1770369798.727933
-0.115168,0.104432,1.105808,12.18,-10.85,24.290001,1770369798.735784
-0.1525,0.054656,1.070184,14.91,-10.01,21.35,1770369798.743784
-0.181292,-0.017324,0.931348,21.77,-13.23,15.54,1770369798.751774
-0.2013,-0.066368,0.778604,32.830002,-20.58,14.63,1770369798.759794
-0.194712,-0.066368,0.785436,41.23,-27.02,6.72,1770369798.767796
-0.1464,-0.018788,0.921832,44.169998,-34.790001,-2.03,1770369798.775787
-0.095892,0.008784,1.142652,41.299999,-40.32,-8.33,1770369798.78378
-0.035868,0.027572,1.350784,36.049999,-46.41,-21.35,1770369798.791776
0.055632,0.077592,1.5189,28.629999,-53.759998,-31.57,1770369798.799789
0.160796,0.059536,1.610888,20.860001,-63.419998,-39.900002,1770369798.807826
0.27084,0.014884,1.614548,15.4,-77.559998,-45.080002,1770369798.815777
0.399428,-0.011956,1.580144,8.33,-96.809998,-46.060001,1770369798.823791
0.527772,-0.015616,1.516704,0.77,-115.150002,-41.02,1770369798.831793
0.650992,-0.026596,1.401292,-8.33,-132.789993,-33.459999,1770369798.839862
0.754204,-0.062708,1.29198,-12.18,-138.740005,-30.379999,1770369798.847833
0.83936,-0.115656,1.2017,-17.57,-133.490005,-23.66,1770369798.855793
0.88572,-0.149084,1.080676,-18.41,-114.940002,-23.379999,1770369798.863785
0.915732,-0.128588,0.98698,-22.68,-87.360001,-23.030001,1770369798.871839
0.902068,-0.046604,0.859856,-27.440001,-48.860001,-22.610001,1770369798.879785
0.858392,0.047092,0.739076,-34.02,-9.45,-20.58,1770369798.887816
0.775432,0.10492,0.655628,-40.18,33.32,-20.23,1770369798.895812
0.679784,0.139324,0.602924,-44.73,70.419998,-13.86,1770369798.903784
0.568276,0.153232,0.584624,-41.439999,102.410004,-11.69,1770369798.911793
0.449448,0.162016,0.584136,-38.919998,125.089996,-8.33,1770369798.91979
0.338184,0.193492,0.575108,-36.400002,137.619995,0.07,1770369798.927868
0.24278,0.242292,0.62464,-33.389999,143.5,4.13,1770369798.935815
0.145668,0.287188,0.717848,-35.279999,138.740005,10.22,1770369798.943784
0.05978,0.285724,0.755424,-37.169998,125.440002,12.32,1770369798.951787
0.004148,0.236192,0.733952,-35.279999,101.639999,20.09,1770369798.959785
-0.027816,0.162016,0.70394,-26.67,72.309998,18.27,1770369798.96791
-0.035624,0.090036,0.664412,-16.52,41.720001,26.74,1770369798.975798
-0.012444,0.01708,0.657824,-1.12,13.23,28.98,1770369798.983784
0.039284,-0.039772,0.704916,11.41,-11.97,29.120001,1770369798.99183
0.09394,-0.099552,0.732244,20.09,-26.74,31.92,1770369798.99988
0.164944,-0.16958,0.68442,31.85,-31.85,32.900002,1770369799.007789
0.23668,-0.23058,0.69784,47.040001,-33.669998,29.26,1770369799.015879
0.31842,-0.254736,0.88572,54.389999,-30.799999,33.459999,1770369799.023869
0.420412,-0.240828,1.211216,60.060001,-22.959999,27.860001,1770369799.031826
0.508008,-0.220332,1.494744,56.07,-7.0,30.59,1770369799.039789
0.553148,-0.208132,1.613328,51.73,18.059999,29.540001,1770369799.047785
0.54412,-0.203008,1.642364,44.310001,46.34,35.279999,1770369799.055815
0.503616,-0.209108,1.65188,34.439999,72.029999,31.360001,1770369799.064064
0.405528,-0.226432,1.661152,20.440001,91.629997,34.509998,1770369799.07188
0.267912,-0.227652,1.644316,4.9,104.93,31.15,1770369799.079926
0.113216,-0.210816,1.592832,-7.14,114.870003,20.23,1770369799.087788
-0.036112,-0.17202,1.490352,-18.200001,122.010002,12.25,1770369799.095791
-0.144204,-0.104188,1.342488,-23.1,118.580002,-2.45,1770369799.103795
-0.226432,-0.021716,1.21756,-23.1,106.260002,-13.16,1770369799.111825
-0.284992,0.064416,1.089216,-21.700001,87.849998,-21.84,1770369799.119859
-0.31232,0.168604,0.91256,-19.25,63.84,-23.030001,1770369799.127803
-0.314516,0.265716,0.755912,-17.01,35.560001,-30.1,1770369799.135785
-0.299388,0.386008,0.654652,-18.41,10.43,-26.18,1770369799.143783
