acc_x,acc_y,acc_z,gyro_x_deg,gyro_y_deg,gyro_z_deg,timestamp,gyro_x,gyro_y,gyro_z
1.4122476,-0.418887,9.85700952,-99.330002,29.75,-36.470001,1770369784,-1.733635581,0.519235452,-0.636521596
1.23751188,-0.37819512,10.02217068,-98.349998,-67.269997,-185.710007,1770369784,-1.716531284,-1.174082935,-3.241251076
1.02687156,-0.26569404,10.1490336,30.030001,-115.150002,-28.84,1770369784,0.524122392,-2.009746669,-0.503352956
0.88325316,-0.21303396,10.26153468,-12.18,33.25,-24.57,1770369784,-0.212581103,0.580321976,-0.428827397
0.71569836,-0.15079932,10.30701384,-3.01,24.92,21.49,1770369784,-0.05253441,0.43493605,0.375071256
0.59362272,-0.11250108,10.3285566,-7.98,20.16,-11.06,1770369784,-0.139277274,0.351858377,-0.193033415
0.50505804,-0.12207564,10.292652,-4.48,14.35,-12.88,1770369784,-0.07819075,0.250454748,-0.224798408
0.47633436,-0.12925656,10.19930004,-5.6,9.8,-10.85,1770369784,-0.097738438,0.171042267,-0.189368224
0.50027076,-0.22260852,10.15621452,-5.46,5.11,-12.53,1770369784,-0.095294977,0.089186325,-0.218689755
0.53378172,-0.26569404,10.12988448,-4.34,0.42,-13.09,1770369784,-0.07574729,0.007330383,-0.228463599
0.6462828,-0.25851312,10.113129,-6.44,-3.01,-17.15,1770369784,-0.112399204,-0.05253441,-0.299323967
0.79947576,-0.27287496,10.053288,-3.99,-5.46,-9.03,1770369784,-0.069638637,-0.095294977,-0.157603231
1.00772244,-0.299205,10.01259612,-7.35,-7.91,-16.799999,1770369784,-0.1282817,-0.138055544,-0.293215297
1.17767088,-0.31835412,10.0293516,-3.36,-11.34,-12.32,1770369784,-0.058643063,-0.197920337,-0.215024564
1.3284702,-0.28963044,10.00302156,-4.9,-13.09,-18.83,1770369784,-0.085521133,-0.228463599,-0.328645498
1.4840568,-0.27287496,9.9575424,-3.92,-14,-16.799999,1770369784,-0.068416907,-0.244346095,-0.293215297
1.63006884,-0.28005588,9.9216378,-6.16,-14.91,-17.43,1770369784,-0.107512282,-0.260228591,-0.304210889
1.71863352,-0.35665236,9.97429788,-6.23,-13.65,-15.89,1770369784,-0.108734012,-0.238237443,-0.277332818
1.83592188,-0.37580148,10.01259612,-6.16,-13.3,-13.44,1770369784,-0.107512282,-0.232128791,-0.234572251
1.88858196,-0.47394072,10.03413888,-4.76,-11.76,-12.53,1770369784,-0.083077672,-0.20525072,-0.218689755
1.92209292,-0.60080364,10.0772244,-8.26,-10.57,-11.27,1770369784,-0.144164196,-0.184481302,-0.196698607
1.9268802,-0.72287928,10.17057636,-5.11,-8.26,-12.88,1770369784,-0.089186325,-0.144164196,-0.224798408
1.90533744,-0.777933,10.14185268,-3.57,-8.33,-8.26,1770369784,-0.062308254,-0.145385927,-0.144164196
1.86225192,-0.8497422,10.02456432,-2.45,-6.44,-8.05,1770369784,-0.042760567,-0.112399204,-0.140499005
1.82634732,-0.86889132,9.873765,-2.03,-7.91,-8.82,1770369784,-0.035430184,-0.138055544,-0.15393804
1.74496356,-0.93830688,9.84025404,-4.9,-7.77,-7.77,1770369784,-0.085521133,-0.135612083,-0.135612083
1.70666532,-0.98378604,9.81631764,-1.54,-7.91,-5.74,1770369784,-0.02687807,-0.138055544,-0.100181899
1.68990984,-0.94788144,9.79956216,-3.78,-8.68,-7.14,1770369784,-0.065973446,-0.151494579,-0.124616509
1.61810064,-0.92633868,9.7899876,-0.7,-9.8,-2.94,1770369784,-0.012217305,-0.171042267,-0.05131268
1.59655788,-0.8258058,9.80913672,-1.47,-10.01,-2.31,1770369784,-0.02565634,-0.174707458,-0.040317106
1.60134516,-0.72766656,9.82349856,-2.59,-9.8,-1.4,1770369784,-0.045204028,-0.171042267,-0.02443461
1.615707,-0.66543192,9.84025404,-3.36,-9.45,-3.5,1770369784,-0.058643063,-0.164933614,-0.061086524
1.68272892,-0.64388916,9.80913672,-3.78,-7.91,-0.98,1770369784,-0.065973446,-0.138055544,-0.017104227
1.73299536,-0.71569836,9.84743496,-5.25,-6.16,-2.94,1770369784,-0.091629786,-0.107512282,-0.05131268
1.76411268,-0.78272028,9.88333956,-3.71,-5.88,-2.52,1770369784,-0.064751715,-0.10262536,-0.043982297
1.79762364,-0.83298672,9.93121236,-5.88,-2.03,-3.78,1770369785,-0.10262536,-0.035430184,-0.065973446
1.855071,-0.9095832,9.933606,-3.71,-1.89,-3.43,1770369785,-0.064751715,-0.032986723,-0.059864793
1.85746464,-0.90479592,9.91924416,-2.45,-0.14,-4.97,1770369785,-0.042760567,-0.002443461,-0.086742864
1.8670392,-0.93830688,9.9216378,-2.45,-0.49,-3.29,1770369785,-0.042760567,-0.008552113,-0.057421332
1.88379468,-0.93112596,9.92642508,-0.91,-0.49,-4.2,1770369785,-0.015882496,-0.008552113,-0.073303829
1.9388484,-0.837774,9.97669152,-2.87,0.07,-6.23,1770369785,-0.05009095,0.00122173,-0.108734012
1.9268802,-0.75160296,9.9096696,-2.66,-0.21,-5.11,1770369785,-0.046425758,-0.003665191,-0.089186325
1.91969928,-0.7420284,9.93121236,-2.73,1.54,-4.13,1770369785,-0.047647489,0.02687807,-0.072082098
1.974753,-0.80905032,9.8857332,-3.22,1.75,-2.66,1770369785,-0.056199602,0.030543262,-0.046425758
1.88618832,-0.73484748,9.95275512,-1.12,3.01,-5.11,1770369785,-0.019547688,0.05253441,-0.089186325
1.86225192,-0.70851744,9.93599964,-5.32,5.74,-3.43,1770369785,-0.092851516,0.100181899,-0.059864793
1.8071982,-0.73484748,9.96472332,-4.13,7.98,-5.46,1770369785,-0.072082098,0.139277274,-0.095294977
1.7473572,-0.777933,9.94078692,-4.97,9.66,-4.34,1770369785,-0.086742864,0.168598806,-0.07574729
1.675548,-0.79468848,9.96472332,-4.27,11.69,-0.14,1770369785,-0.074525559,0.20402899,-0.002443461
1.57262148,-0.82101852,9.97190424,-3.57,12.95,-3.64,1770369785,-0.062308254,0.226020138,-0.063529985
1.44336492,-0.8497422,10.04610708,-5.81,12.74,-0.28,1770369785,-0.10140363,0.222354947,-0.004886922
1.37394936,-0.81144396,10.09158624,-5.25,12.39,-3.64,1770369785,-0.091629786,0.216246294,-0.063529985
1.25905464,-0.80905032,10.11552264,-4.97,12.04,-1.4,1770369785,-0.086742864,0.210137642,-0.02443461
1.20400092,-0.82819944,10.07483076,-4.48,11.83,-1.54,1770369785,-0.07819075,0.206472451,-0.02687807
1.14655356,-0.79229484,10.02456432,-1.82,10.5,-1.05,1770369785,-0.031764992,0.183259571,-0.018325957
1.1489472,-0.75639024,9.98865972,-1.68,10.43,-4.13,1770369785,-0.029321531,0.182037841,-0.072082098
1.15134084,-0.74442204,9.99105336,0.49,9.17,-2.87,1770369785,0.008552113,0.160046692,-0.05009095
1.1728836,-0.69176196,10.01259612,0,8.4,-4.06,1770369785,0,0.146607657,-0.070860368
1.25187372,-0.66782556,10.06046892,2.24,7,-2.52,1770369785,0.039095375,0.122173048,-0.043982297
1.33325748,-0.63670824,10.13945904,2.87,5.6,-2.73,1770369785,0.05009095,0.097738438,-0.047647489
1.35480024,-0.58404816,10.22323644,3.5,5.32,-3.08,1770369785,0.061086524,0.092851516,-0.053756141
1.3883112,-0.56489904,10.22563008,4.97,3.99,-2.94,1770369785,0.086742864,0.069638637,-0.05131268
1.39549212,-0.56489904,10.18015092,2.31,3.5,-1.4,1770369785,0.040317106,0.061086524,-0.02443461
1.39549212,-0.62713368,10.17536364,4.9,4.2,-0.84,1770369785,0.085521133,0.073303829,-0.014660766
1.40746032,-0.62474004,10.13945904,5.11,2.52,-3.29,1770369785,0.089186325,0.043982297,-0.057421332
1.40985396,-0.67740012,10.10355444,1.19,4.55,-1.96,1770369785,0.020769418,0.079412481,-0.034208453
1.436184,-0.67261284,10.05089436,3.22,3.78,-3.78,1770369785,0.056199602,0.065973446,-0.065973446
1.44336492,-0.718092,10.0891926,2.87,4.34,-1.26,1770369785,0.05009095,0.07574729,-0.021991149
1.47687588,-0.76835844,10.04371344,3.36,3.64,-2.66,1770369785,0.058643063,0.063529985,-0.046425758
1.49123772,-0.76835844,10.00302156,3.08,1.75,-0.91,1770369785,0.053756141,0.030543262,-0.015882496
1.47448224,-0.77314572,10.0293516,4.34,2.17,1.75,1770369785,0.07574729,0.037873645,0.030543262
1.44097128,-0.75160296,10.0413198,3.01,2.52,-0.98,1770369785,0.05253441,0.043982297,-0.017104227
1.41464124,-0.6702192,10.05807528,4.76,3.43,2.8,1770369785,0.083077672,0.059864793,0.048869219
1.39788576,-0.63910188,10.04850072,3.99,2.73,1.54,1770369785,0.069638637,0.047647489,0.02687807
1.34761932,-0.6343146,10.05089436,3.22,3.08,5.11,1770369785,0.056199602,0.053756141,0.089186325
1.32368292,-0.6462828,10.05089436,3.99,3.71,4.27,1770369785,0.069638637,0.064751715,0.074525559
1.29017196,-0.68697468,10.12030992,1.68,3.64,6.16,1770369785,0.029321531,0.063529985,0.107512282
1.24948008,-0.68458104,10.2088746,3.29,4.06,6.23,1770369785,0.057421332,0.070860368,0.108734012
1.15373448,-0.67979376,10.29743928,3.43,5.39,8.54,1770369785,0.059864793,0.094073247,0.149051118
1.08671256,-0.61755912,10.3165884,4.97,5.6,6.93,1770369785,0.086742864,0.097738438,0.120951317
0.9813924,-0.60080364,10.2567474,1.89,5.74,7.49,1770369785,0.032986723,0.100181899,0.130725161
0.93591324,-0.54335628,10.23041736,4.13,4.41,7.49,1770369785,0.072082098,0.07696902,0.130725161
0.93830688,-0.50505804,10.22563008,2.8,1.54,7.49,1770369785,0.048869219,0.02687807,0.130725161
0.96703056,-0.43803612,10.13945904,3.43,-0.21,7.28,1770369785,0.059864793,-0.003665191,0.12705997
1.0412334,-0.39255696,10.1011608,2.1,-4.27,5.39,1770369785,0.036651914,-0.074525559,0.094073247
1.11543624,-0.3710142,10.07243712,0.42,-6.37,5.39,1770369785,0.007330383,-0.111177473,0.094073247
1.24948008,-0.38537604,10.07243712,1.89,-8.19,4.2,1770369785,0.032986723,-0.142942466,0.073303829
1.38352392,-0.38537604,10.07004348,0.63,-9.45,5.88,1770369785,0.010995574,-0.164933614,0.10262536
1.48884408,-0.40213152,9.98626608,3.78,-9.1,4.69,1770369785,0.065973446,-0.158824962,0.081855942
1.57501512,-0.41409972,9.91685052,-0.56,-8.26,2.59,1770369785,-0.009773844,-0.144164196,0.045204028
1.64682432,-0.4428234,9.8617968,1.19,-6.23,2.66,1770369785,0.020769418,-0.108734012,0.046425758
1.735389,-0.53138808,9.79956216,0.91,-5.32,2.94,1770369785,0.015882496,-0.092851516,0.05131268
1.77847452,-0.60080364,9.813924,0.98,-2.31,0.28,1770369785,0.017104227,-0.040317106,0.004886922
1.79523,-0.69654924,9.80913672,2.24,-1.26,3.64,1770369785,0.039095375,-0.021991149,0.063529985
1.76411268,-0.7300602,9.79956216,2.52,0.84,2.73,1770369785,0.043982297,0.014660766,0.047647489
1.70666532,-0.77075208,9.7899876,1.19,4.97,2.17,1770369785,0.020769418,0.086742864,0.037873645
1.65400524,-0.7659648,9.83307312,3.29,4.97,2.24,1770369785,0.057421332,0.086742864,0.039095375
1.59655788,-0.83298672,9.91924416,1.54,7.49,3.85,1770369785,0.02687807,0.130725161,0.067195176
1.50081228,-0.86410404,9.95514876,2.1,7.7,3.08,1770369785,0.036651914,0.134390352,0.053756141
1.41703488,-0.87607224,10.01020248,3.01,10.15,3.64,1770369785,0.05253441,0.177150919,0.063529985
1.34522568,-0.897615,10.06046892,2.73,9.31,3.99,1770369785,0.047647489,0.162490153,0.069638637
1.27820376,-0.87607224,10.11791628,3.08,7.49,3.78,1770369785,0.053756141,0.130725161,0.065973446
1.22554368,-0.88085952,10.08201168,3.29,7.21,3.92,1770369785,0.057421332,0.125838239,0.068416907
1.15373448,-0.8736786,10.0891926,4.41,6.86,5.25,1770369785,0.07696902,0.119729587,0.091629786
1.16330904,-0.8617104,10.08679896,3.85,4.55,3.22,1770369785,0.067195176,0.079412481,0.056199602
1.16330904,-0.8497422,10.09876716,2.45,2.73,3.36,1770369785,0.042760567,0.047647489,0.058643063
1.17527724,-0.85692312,10.11073536,2.59,2.24,4.2,1770369785,0.045204028,0.039095375,0.073303829
1.18724544,-0.86889132,10.09158624,1.47,2.31,6.3,1770369785,0.02565634,0.040317106,0.109955743
1.20639456,-0.87128496,10.06046892,0.91,0.84,5.81,1770369785,0.015882496,0.014660766,0.10140363
1.20400092,-0.8258058,10.07961804,2.45,0.35,6.37,1770369785,0.042760567,0.006108652,0.111177473
1.23511824,-0.76117752,10.07483076,-1.47,1.12,3.92,1770369785,-0.02565634,0.019547688,0.068416907
1.24948008,-0.73484748,10.0173834,2.66,1.19,4.69,1770369785,0.046425758,0.020769418,0.081855942
1.2207564,-0.74920932,10.00062792,0.63,1.33,7.35,1770369785,0.010995574,0.023212879,0.1282817
1.25187372,-0.77075208,9.993447,0.98,1.05,7.49,1770369785,0.017104227,0.018325957,0.130725161
1.22793732,-0.74920932,10.02217068,1.33,1.4,6.58,1770369785,0.023212879,0.02443461,0.114842665
1.22554368,-0.73963476,10.04850072,1.19,3.22,4.34,1770369785,0.020769418,0.056199602,0.07574729
1.22315004,-0.70133652,9.99584064,3.36,1.89,3.92,1770369785,0.058643063,0.032986723,0.068416907
1.2327246,-0.75878388,9.99584064,1.75,1.61,3.57,1770369785,0.030543262,0.028099801,0.062308254
1.19203272,-0.73724112,9.98387244,4.69,-0.35,3.43,1770369785,0.081855942,-0.006108652,0.059864793
1.21596912,-0.78511392,9.9814788,3.78,0.42,3.71,1770369785,0.065973446,0.007330383,0.064751715
1.22793732,-0.82341216,9.99823428,1.75,1.12,3.64,1770369785,0.030543262,0.019547688,0.063529985
1.2087882,-0.8856468,9.94796784,4.9,-0.49,4.13,1770369785,0.085521133,-0.008552113,0.072082098
1.24708644,-0.88085952,9.95514876,4.97,-0.7,3.92,1770369785,0.086742864,-0.012217305,0.068416907
1.23751188,-0.8856468,9.98387244,5.46,-1.26,5.46,1770369785,0.095294977,-0.021991149,0.095294977
1.21836276,-0.85931676,10.0173834,6.65,-1.47,4.55,1770369785,0.116064395,-0.02565634,0.079412481
1.27102284,-0.83298672,10.07483076,3.36,-0.91,2.52,1770369785,0.058643063,-0.015882496,0.043982297
1.29017196,-0.78032664,10.12749084,5.46,0,3.36,1770369785,0.095294977,0,0.058643063
1.32128928,-0.72766656,10.15621452,4.55,-0.91,4.9,1770369785,0.079412481,-0.015882496,0.085521133
1.30692744,-0.70373016,10.16818272,4.62,1.75,2.45,1770369785,0.080634211,0.030543262,0.042760567
1.2805974,-0.658251,10.13227812,3.99,0.77,4.13,1770369785,0.069638637,0.013439035,0.072082098
1.21357548,-0.64388916,10.053288,4.2,1.4,0.77,1770369785,0.073303829,0.02443461,0.013439035
1.17048996,-0.65107008,9.9695106,6.02,-0.49,6.16,1770369785,0.105068821,-0.008552113,0.107512282
1.14415992,-0.62713368,10.0173834,3.64,-0.77,0.84,1770369785,0.063529985,-0.013439035,0.014660766
1.11782988,-0.56729268,10.06764984,5.88,-1.12,5.81,1770369785,0.10262536,-0.019547688,0.10140363
1.15852176,-0.52420716,10.13227812,4.9,-2.03,2.45,1770369785,0.085521133,-0.035430184,0.042760567
1.15373448,-0.45957888,10.18733184,3.22,-1.05,3.08,1770369785,0.056199602,-0.018325957,0.053756141
1.17048996,-0.40213152,10.20648096,6.23,-0.35,2.45,1770369785,0.108734012,-0.006108652,0.042760567
1.1489472,-0.3231414,10.24238556,4.06,-0.35,4.41,1770369785,0.070860368,-0.006108652,0.07696902
1.1848518,-0.27766224,10.27829016,4.97,-1.4,3.36,1770369785,0.086742864,-0.02443461,0.058643063
1.17048996,-0.2752686,10.27350288,3.01,-1.33,0.63,1770369785,0.05253441,-0.023212879,0.010995574
1.17048996,-0.25851312,10.27829016,3.08,-2.8,1.96,1770369785,0.053756141,-0.048869219,0.034208453
1.23511824,-0.26808768,10.1969064,0.77,-4.83,0.28,1770369785,0.013439035,-0.084299403,0.004886922
1.256661,-0.3111732,10.15142724,2.59,-4.9,3.22,1770369785,0.045204028,-0.085521133,0.056199602
1.29735288,-0.359046,10.10834172,1.19,-6.58,2.73,1770369785,0.020769418,-0.114842665,0.047647489
1.32368292,-0.36622692,10.05089436,1.33,-6.58,5.11,1770369785,0.023212879,-0.114842665,0.089186325
1.36198116,-0.40213152,10.07243712,1.68,-4.9,3.85,1770369785,0.029321531,-0.085521133,0.067195176
1.37873664,-0.39734424,10.09158624,0.7,-5.04,1.54,1770369785,0.012217305,-0.087964594,0.02687807
1.36676844,-0.40213152,10.08679896,0.63,-3.43,3.71,1770369785,0.010995574,-0.059864793,0.064751715
1.40985396,-0.39016332,10.10834172,3.57,-3.57,3.57,1770369785,0.062308254,-0.062308254,0.062308254
1.3404384,-0.37819512,10.11073536,1.96,-3.64,2.03,1770369785,0.034208453,-0.063529985,0.035430184
1.3404384,-0.41649336,10.09397988,-1.26,-3.01,1.75,1770369785,-0.021991149,-0.05253441,0.030543262
1.32368292,-0.47633436,10.11552264,0.21,-2.59,3.29,1770369785,0.003665191,-0.045204028,0.057421332
1.34283204,-0.58404816,10.02217068,0.35,-2.8,2.45,1770369785,0.006108652,-0.048869219,0.042760567
1.30692744,-0.66303828,9.97669152,0.7,-3.22,3.08,1770369785,0.012217305,-0.056199602,0.053756141
1.2805974,-0.71569836,9.97190424,1.19,-3.15,0.98,1770369785,0.020769418,-0.054977871,0.017104227
1.27581012,-0.68936832,9.98387244,1.26,-2.17,-0.28,1770369785,0.021991149,-0.037873645,-0.004886922
1.27102284,-0.6821874,9.99105336,1.12,-2.8,0.42,1770369785,0.019547688,-0.048869219,0.007330383
1.26384192,-0.70133652,10.01977704,0.77,-3.36,0.21,1770369785,0.013439035,-0.058643063,0.003665191
1.32368292,-0.6702192,10.09397988,1.68,-2.1,0.21,1770369785,0.029321531,-0.036651914,0.003665191
1.3284702,-0.64867644,10.0772244,0.42,-1.26,-0.28,1770369785,0.007330383,-0.021991149,-0.004886922
1.34761932,-0.64388916,10.01977704,-1.68,-1.05,-1.05,1770369786,-0.029321531,-0.018325957,-0.018325957
1.35719388,-0.63670824,9.96711696,0,-1.12,-2.38,1770369786,0,-0.019547688,-0.041538836
1.37873664,-0.62952732,9.993447,-0.84,-1.4,-1.47,1770369786,-0.014660766,-0.02443461,-0.02565634
1.39549212,-0.6223464,10.00780884,0.07,-1.54,-0.7,1770369786,0.00122173,-0.02687807,-0.012217305
1.40506668,-0.59601636,10.01020248,-1.19,-0.56,-0.28,1770369786,-0.020769418,-0.009773844,-0.004886922
1.41464124,-0.58883544,10.0054152,-0.98,0.21,-3.29,1770369786,-0.017104227,0.003665191,-0.057421332
1.39788576,-0.56489904,10.02695796,-0.21,1.82,0.07,1770369786,-0.003665191,0.031764992,0.00122173
1.33565112,-0.56729268,10.02217068,-2.17,2.52,-0.14,1770369786,-0.037873645,0.043982297,-0.002443461
1.3524066,-0.52181352,10.02456432,0.98,1.96,-0.63,1770369786,0.017104227,0.034208453,-0.010995574
1.29495924,-0.57686724,10.01498976,0,2.52,0.07,1770369786,0,0.043982297,0.00122173
1.29495924,-0.60798456,10.04610708,-1.68,0.84,-2.31,1770369786,-0.029321531,0.014660766,-0.040317106
1.24948008,-0.58404816,10.053288,-0.91,1.75,-1.05,1770369786,-0.015882496,0.030543262,-0.018325957
1.23033096,-0.64388916,10.03413888,-0.56,1.12,0.21,1770369786,-0.009773844,0.019547688,0.003665191
1.24948008,-0.64867644,10.02217068,-0.63,0.42,-0.91,1770369786,-0.010995574,0.007330383,-0.015882496
1.31171472,-0.65107008,9.993447,-1.33,-0.84,-1.05,1770369786,-0.023212879,-0.014660766,-0.018325957
1.29735288,-0.63192096,9.993447,-2.03,-0.14,-2.03,1770369786,-0.035430184,-0.002443461,-0.035430184
1.3284702,-0.57207996,10.0293516,0.21,-0.77,-1.82,1770369786,0.003665191,-0.013439035,-0.031764992
1.34283204,-0.5505372,10.03174524,-1.89,-0.14,-1.61,1770369786,-0.032986723,-0.002443461,-0.028099801
1.35480024,-0.47633436,10.053288,-0.98,-0.35,0.49,1770369786,-0.017104227,-0.006108652,0.008552113
1.35719388,-0.4547916,10.08440532,-1.26,0.21,-0.91,1770369786,-0.021991149,0.003665191,-0.015882496
1.37155572,-0.45000432,10.13467176,-2.1,0.63,0.49,1770369786,-0.036651914,0.010995574,0.008552113
1.36676844,-0.44761068,10.17775728,-0.98,0.98,-0.56,1770369786,-0.017104227,0.017104227,-0.009773844
1.31410836,-0.42367428,10.17057636,-0.7,0.63,1.12,1770369786,-0.012217305,0.010995574,0.019547688
1.27581012,-0.43564248,10.14185268,-0.77,1.4,0.07,1770369786,-0.013439035,0.02443461,0.00122173
1.23511824,-0.42128064,10.12988448,-1.33,0.21,1.33,1770369786,-0.023212879,0.003665191,0.023212879
1.21596912,-0.48112164,10.13467176,-2.45,0.21,-0.14,1770369786,-0.042760567,0.003665191,-0.002443461
1.23751188,-0.50027076,10.1610018,-1.47,1.33,-0.07,1770369786,-0.02565634,0.023212879,-0.00122173
1.21118184,-0.59362272,10.17536364,-1.33,0.28,-0.98,1770369786,-0.023212879,0.004886922,-0.017104227
1.19442636,-0.6462828,10.17536364,-0.91,-1.68,0.98,1770369786,-0.015882496,-0.029321531,0.017104227
1.21836276,-0.62713368,10.11073536,-0.35,-0.98,-1.12,1770369786,-0.006108652,-0.017104227,-0.019547688
1.24948008,-0.61516548,10.07004348,0.21,-0.56,-1.61,1770369786,0.003665191,-0.009773844,-0.028099801
1.25187372,-0.61277184,10.08201168,1.4,-1.33,-0.84,1770369786,0.02443461,-0.023212879,-0.014660766
1.27820376,-0.56011176,10.10834172,-0.63,-0.91,-3.85,1770369786,-0.010995574,-0.015882496,-0.067195176
1.2925656,-0.538569,10.10594808,0.21,-0.35,0.42,1770369786,0.003665191,-0.006108652,0.007330383
1.33086384,-0.5266008,10.0891926,-0.49,-1.12,-1.82,1770369786,-0.008552113,-0.019547688,-0.031764992
1.29735288,-0.54335628,10.0772244,-2.59,-0.28,-3.85,1770369786,-0.045204028,-0.004886922,-0.067195176
1.33086384,-0.56968632,10.07004348,-0.42,-0.35,-1.19,1770369786,-0.007330383,-0.006108652,-0.020769418
1.29974652,-0.59122908,10.07483076,-1.68,-0.14,-0.56,1770369786,-0.029321531,-0.002443461,-0.009773844
1.29017196,-0.6103782,10.05807528,-1.12,-0.35,-0.91,1770369786,-0.019547688,-0.006108652,-0.015882496
1.28299104,-0.62474004,10.0413198,0.56,0.07,-3.64,1770369786,0.009773844,0.00122173,-0.063529985
1.30692744,-0.61995276,10.05807528,-1.75,-1.26,0.28,1770369786,-0.030543262,-0.021991149,0.004886922
1.316502,-0.658251,10.05807528,-1.12,0.56,-3.64,1770369786,-0.019547688,0.009773844,-0.063529985
1.32128928,-0.63192096,10.08440532,-0.77,-0.56,-1.26,1770369786,-0.013439035,-0.009773844,-0.021991149
1.30692744,-0.66543192,10.10355444,-0.21,-1.82,-0.49,1770369786,-0.003665191,-0.031764992,-0.008552113
1.32607656,-0.6702192,10.0891926,-0.42,-1.68,-1.68,1770369786,-0.007330383,-0.029321531,-0.029321531
1.3045338,-0.61995276,10.07243712,-0.91,-0.14,-1.96,1770369786,-0.015882496,-0.002443461,-0.034208453
1.31889564,-0.6103782,10.0652562,-0.77,-1.33,-2.59,1770369786,-0.013439035,-0.023212879,-0.045204028
1.32368292,-0.57686724,10.09637352,-2.31,-0.42,-0.14,1770369786,-0.040317106,-0.007330383,-0.002443461
1.29974652,-0.54096264,10.1011608,-0.77,-0.84,-2.52,1770369786,-0.013439035,-0.014660766,-0.043982297
1.2925656,-0.54574992,10.0891926,-1.47,-0.7,0.49,1770369786,-0.02565634,-0.012217305,0.008552113
1.2686292,-0.57686724,10.0293516,1.47,-0.35,-0.7,1770369786,0.02565634,-0.006108652,-0.012217305
1.23751188,-0.55771812,10.0293516,-1.12,0.07,-0.63,1770369786,-0.019547688,0.00122173,-0.010995574
1.25905464,-0.58883544,10.0054152,-0.21,-0.56,-1.61,1770369786,-0.003665191,-0.009773844,-0.028099801
1.24229916,-0.57926088,9.97190424,-2.24,1.05,0.21,1770369786,-0.039095375,0.018325957,0.003665191
1.23990552,-0.5744736,9.98626608,0.35,0.42,-3.5,1770369786,0.006108652,0.007330383,-0.061086524
1.24948008,-0.59362272,10.00302156,-1.19,0.98,0.98,1770369786,-0.020769418,0.017104227,0.017104227
1.26384192,-0.56729268,10.09158624,0.14,0.84,-0.63,1770369786,0.002443461,0.014660766,-0.010995574
1.22315004,-0.538569,10.14185268,0.91,0.56,-1.05,1770369786,0.015882496,0.009773844,-0.018325957
1.25187372,-0.50984532,10.17057636,0.42,0.21,0.84,1770369786,0.007330383,0.003665191,0.014660766
1.23751188,-0.52420716,10.17057636,-0.42,-0.7,-1.26,1770369786,-0.007330383,-0.012217305,-0.021991149
1.24229916,-0.50984532,10.15621452,-2.45,-0.21,-1.75,1770369786,-0.042760567,-0.003665191,-0.030543262
1.24708644,-0.52420716,10.12270356,-0.42,-1.33,-2.31,1770369786,-0.007330383,-0.023212879,-0.040317106
1.26384192,-0.57926088,10.11791628,-2.87,-1.82,-1.82,1770369786,-0.05009095,-0.031764992,-0.031764992
1.26144828,-0.60319728,10.08201168,0.35,-0.35,-0.7,1770369786,0.006108652,-0.006108652,-0.012217305
1.2805974,-0.60080364,10.09637352,-1.75,-1.89,-1.12,1770369786,-0.030543262,-0.032986723,-0.019547688
1.29017196,-0.62713368,10.0772244,-2.03,-1.47,-0.63,1770369786,-0.035430184,-0.02565634,-0.010995574
1.27581012,-0.65346372,10.04610708,0.14,-0.7,-1.96,1770369786,0.002443461,-0.012217305,-0.034208453
1.33325748,-0.65346372,10.09637352,-0.56,-1.68,-0.07,1770369786,-0.009773844,-0.029321531,-0.00122173
1.3045338,-0.65346372,10.07243712,0.56,-0.35,-0.35,1770369786,0.009773844,-0.006108652,-0.006108652
1.28538468,-0.65107008,10.09158624,-0.56,-0.35,-1.26,1770369786,-0.009773844,-0.006108652,-0.021991149
1.31889564,-0.61995276,10.08201168,1.33,0.21,-2.73,1770369786,0.023212879,0.003665191,-0.047647489
1.31889564,-0.61277184,10.07243712,-0.35,-0.21,0.84,1770369786,-0.006108652,-0.003665191,0.014660766
1.3045338,-0.58404816,10.0772244,-0.91,1.19,-1.68,1770369786,-0.015882496,0.020769418,-0.029321531
1.3045338,-0.59362272,10.05568164,0.35,1.54,2.31,1770369786,0.006108652,0.02687807,0.040317106
1.28777832,-0.60559092,10.08201168,-1.54,1.19,2.17,1770369786,-0.02687807,0.020769418,0.037873645
1.28777832,-0.54814356,10.053288,0.35,0.98,-1.4,1770369786,0.006108652,0.017104227,-0.02443461
1.28299104,-0.56968632,10.06286256,-2.24,0.42,0.77,1770369786,-0.039095375,0.007330383,0.013439035
1.25187372,-0.57926088,10.0413198,-0.49,0.84,-0.56,1770369786,-0.008552113,0.014660766,-0.009773844
1.29495924,-0.62952732,10.07483076,0.7,1.05,3.22,1770369786,0.012217305,0.018325957,0.056199602
1.28777832,-0.62713368,10.12749084,-0.63,0.56,-0.91,1770369786,-0.010995574,0.009773844,-0.015882496
1.26623556,-0.59841,10.16818272,-0.98,1.54,2.31,1770369786,-0.017104227,0.02687807,0.040317106
1.26144828,-0.65107008,10.13467176,-0.14,1.54,-1.47,1770369786,-0.002443461,0.02687807,-0.02565634
1.24708644,-0.63192096,10.10834172,1.54,2.31,-0.28,1770369786,0.02687807,0.040317106,-0.004886922
1.23511824,-0.62474004,10.10834172,0.77,3.08,0.63,1770369786,0.013439035,0.053756141,0.010995574
1.25905464,-0.6343146,10.13467176,0.35,2.17,0.21,1770369786,0.006108652,0.037873645,0.003665191
1.26384192,-0.59841,10.10594808,-2.24,1.33,2.24,1770369786,-0.039095375,0.023212879,0.039095375
1.24229916,-0.57686724,10.16578908,-0.07,2.73,-0.14,1770369786,-0.00122173,0.047647489,-0.002443461
1.21836276,-0.58404816,10.21126824,0,2.1,2.59,1770369786,0,0.036651914,0.045204028
1.23033096,-0.56729268,10.19930004,-0.21,1.96,3.78,1770369786,-0.003665191,0.034208453,0.065973446
1.19442636,-0.57207996,10.232811,-1.19,2.17,2.45,1770369786,-0.020769418,0.037873645,0.042760567
1.16570268,-0.58404816,10.20408732,-2.24,1.54,2.24,1770369786,-0.039095375,0.02687807,0.039095375
1.11782988,-0.57926088,10.14663996,-1.26,1.96,2.52,1770369786,-0.021991149,0.034208453,0.043982297
1.10586168,-0.6462828,10.08201168,-4.34,1.75,1.26,1770369786,-0.07574729,0.030543262,0.021991149
1.1010744,-0.65346372,10.02695796,-1.12,1.82,3.08,1770369786,-0.019547688,0.031764992,0.053756141
1.06277616,-0.72048564,10.053288,-0.91,0.21,-0.42,1770369786,-0.015882496,0.003665191,-0.007330383
1.0412334,-0.68697468,10.0652562,-2.52,1.54,3.64,1770369786,-0.043982297,0.02687807,0.063529985
1.02208428,-0.69176196,10.08201168,0.35,-0.14,0.91,1770369786,0.006108652,-0.002443461,0.015882496
1.03883976,-0.69176196,10.08201168,-0.21,-0.56,2.66,1770369786,-0.003665191,-0.009773844,0.046425758
1.06038252,-0.66782556,10.06764984,1.33,0.42,2.66,1770369786,0.023212879,0.007330383,0.046425758
1.05798888,-0.64388916,10.09876716,2.87,-1.47,2.1,1770369786,0.05009095,-0.02565634,0.036651914
1.08671256,-0.65107008,10.08679896,-0.91,-0.7,1.75,1770369786,-0.015882496,-0.012217305,0.030543262
1.11782988,-0.59362272,10.09637352,2.66,-1.33,-0.28,1770369786,0.046425758,-0.023212879,-0.004886922
1.16570268,-0.56729268,10.13227812,1.33,-1.47,0.84,1770369786,0.023212879,-0.02565634,0.014660766
1.19921364,-0.5864418,10.10594808,1.68,-1.47,2.87,1770369786,0.029321531,-0.02565634,0.05009095
1.18006452,-0.56729268,10.11791628,0.56,-1.4,1.4,1770369786,0.009773844,-0.02443461,0.02443461
1.15612812,-0.59841,10.12749084,-0.14,-3.36,3.22,1770369786,-0.002443461,-0.058643063,0.056199602
1.18245816,-0.61995276,10.17297,-0.35,-3.99,1.96,1770369786,-0.006108652,-0.069638637,0.034208453
1.16570268,-0.67500648,10.15382088,-1.89,-2.59,1.33,1770369786,-0.032986723,-0.045204028,0.023212879
1.1250108,-0.72527292,10.08679896,-0.56,-2.66,1.61,1770369786,-0.009773844,-0.046425758,0.028099801
1.08192528,-0.68458104,10.0054152,-0.77,-3.43,4.48,1770369786,-0.013439035,-0.059864793,0.07819075
1.04602068,-0.70373016,9.933606,0.56,-3.22,3.36,1770369786,0.009773844,-0.056199602,0.058643063
1.01250972,-0.65346372,9.88333956,-0.21,-5.04,4.27,1770369786,-0.003665191,-0.087964594,0.074525559
1.01490336,-0.62952732,9.89052048,0,-4.97,2.31,1770369786,0,-0.086742864,0.040317106
1.02447792,-0.61277184,9.93839328,2.31,-7,5.04,1770369786,0.040317106,-0.122173048,0.087964594
1.04841432,-0.6702192,9.97908516,2.31,-6.37,2.66,1770369786,0.040317106,-0.111177473,0.046425758
1.06277616,-0.6702192,10.03174524,-0.63,-6.23,1.54,1770369786,-0.010995574,-0.108734012,0.02687807
1.09868076,-0.63910188,10.03892616,1.68,-5.25,0.63,1770369786,0.029321531,-0.091629786,0.010995574
1.15852176,-0.67979376,10.04610708,1.68,-5.18,1.89,1770369786,0.029321531,-0.090408055,0.032986723
1.23033096,-0.69176196,10.0173834,2.31,-4.55,1.19,1770369786,0.040317106,-0.079412481,0.020769418
1.30214016,-0.73245384,9.99584064,2.31,-4.97,-1.19,1770369786,0.040317106,-0.086742864,-0.020769418
1.39788576,-0.75878388,10.0413198,3.92,-6.09,-2.73,1770369786,0.068416907,-0.106290551,-0.047647489
1.46730132,-0.74681568,10.05807528,2.45,-4.97,-0.14,1770369786,0.042760567,-0.086742864,-0.002443461
1.51517412,-0.73963476,10.07483076,2.8,-3.99,-2.38,1770369786,0.048869219,-0.069638637,-0.041538836
1.56304692,-0.7061238,10.0891926,4.13,-2.8,-4.27,1770369786,0.072082098,-0.048869219,-0.074525559
1.5678342,-0.6821874,10.08201168,4.76,-3.22,-2.73,1770369786,0.083077672,-0.056199602,-0.047647489
1.56065328,-0.63670824,10.04610708,3.01,-0.84,-2.31,1770369787,0.05253441,-0.014660766,-0.040317106
1.52953596,-0.59122908,10.0413198,5.11,-0.35,-0.28,1770369787,0.089186325,-0.006108652,-0.004886922
1.4720886,-0.59362272,10.02695796,2.45,-0.14,-0.91,1770369787,0.042760567,-0.002443461,-0.015882496
1.39549212,-0.61755912,10.01020248,3.43,0.42,1.47,1770369787,0.059864793,0.007330383,0.02565634
1.34283204,-0.63910188,9.993447,3.22,0,-0.7,1770369787,0.056199602,0,-0.012217305
1.256661,-0.63670824,9.93599964,0.91,0,2.45,1770369787,0.015882496,0,0.042760567
1.19203272,-0.61516548,9.9575424,2.66,-0.56,0.42,1770369787,0.046425758,-0.009773844,0.007330383
1.12979808,-0.65107008,9.91924416,2.45,-2.66,1.54,1770369787,0.042760567,-0.046425758,0.02687807
1.09868076,-0.65107008,9.89530776,2.24,-3.64,1.4,1770369787,0.039095375,-0.063529985,0.02443461
1.136979,-0.658251,9.94318056,2.87,-4.34,-0.49,1770369787,0.05009095,-0.07574729,-0.008552113
1.12740444,-0.66064464,10.0293516,0.91,-4.34,2.8,1770369787,0.015882496,-0.07574729,0.048869219
1.14655356,-0.63192096,10.07243712,2.87,-4.69,0,1770369787,0.05009095,-0.081855942,0
1.15373448,-0.55532448,10.13227812,3.99,-4.69,-0.14,1770369787,0.069638637,-0.081855942,-0.002443461
1.15852176,-0.5026644,10.14424632,4.06,-4.34,2.87,1770369787,0.070860368,-0.07574729,0.05009095
1.25187372,-0.46197252,10.16339544,4.34,-5.46,0.42,1770369787,0.07574729,-0.095294977,0.007330383
1.27102284,-0.42846156,10.15621452,1.54,-4.76,2.31,1770369787,0.02687807,-0.083077672,0.040317106
1.29495924,-0.37819512,10.18015092,3.01,-6.3,-2.38,1770369787,0.05253441,-0.109955743,-0.041538836
1.34283204,-0.34947144,10.27110924,2.59,-4.9,-0.49,1770369787,0.045204028,-0.085521133,-0.008552113
1.33804476,-0.29202408,10.29025836,2.59,-4.13,-0.84,1770369787,0.045204028,-0.072082098,-0.014660766
1.37873664,-0.30638592,10.32376932,0.56,-4.76,-1.12,1770369787,0.009773844,-0.083077672,-0.019547688
1.40267304,-0.3351096,10.28307744,-1.47,-4.69,-3.29,1770369787,-0.02565634,-0.081855942,-0.057421332
1.436184,-0.36862056,10.24956648,1.4,-4.69,-2.73,1770369787,0.02443461,-0.081855942,-0.047647489
1.42182216,-0.3949506,10.21844916,-0.07,-5.32,-0.84,1770369787,-0.00122173,-0.092851516,-0.014660766
1.45293948,-0.4428234,10.16339544,0.14,-4.2,-0.91,1770369787,0.002443461,-0.073303829,-0.015882496
1.42660944,-0.5026644,10.15860816,1.26,-5.32,-0.77,1770369787,0.021991149,-0.092851516,-0.013439035
1.43379036,-0.54096264,10.12270356,-1.75,-4.13,0.21,1770369787,-0.030543262,-0.072082098,0.003665191
1.39070484,-0.54574992,10.07243712,-1.33,-4.34,0.42,1770369787,-0.023212879,-0.07574729,0.007330383
1.40985396,-0.61755912,10.0413198,-1.12,-3.64,-1.4,1770369787,-0.019547688,-0.063529985,-0.02443461
1.39788576,-0.63670824,10.0413198,-0.63,-3.64,2.1,1770369787,-0.010995574,-0.063529985,0.036651914
1.40267304,-0.67979376,9.97669152,-1.54,-4.69,-2.17,1770369787,-0.02687807,-0.081855942,-0.037873645
1.40506668,-0.70133652,9.9814788,-3.08,-2.66,-0.63,1770369787,-0.053756141,-0.046425758,-0.010995574
1.40985396,-0.69894288,9.99584064,-0.56,-3.57,-1.05,1770369787,-0.009773844,-0.062308254,-0.018325957
1.48166316,-0.68936832,9.99105336,-0.91,-3.64,0.07,1770369787,-0.015882496,-0.063529985,0.00122173
1.49363136,-0.6821874,9.9455742,0,-2.17,1.12,1770369787,0,-0.037873645,0.019547688
1.54629144,-0.62713368,9.93121236,1.12,-3.01,-1.82,1770369787,0.019547688,-0.05253441,-0.031764992
1.5798024,-0.60798456,9.9695106,-0.14,-2.1,-2.31,1770369787,-0.002443461,-0.036651914,-0.040317106
1.63006884,-0.55293084,9.95993604,2.45,-2.24,-2.52,1770369787,0.042760567,-0.039095375,-0.043982297
1.67076072,-0.51941988,10.02695796,0.77,-1.26,0.07,1770369787,0.013439035,-0.021991149,0.00122173
1.67315436,-0.46915344,10.04610708,2.1,-1.12,-1.26,1770369787,0.036651914,-0.019547688,-0.021991149
1.69230348,-0.45957888,10.06286256,-0.35,0,-3.5,1770369787,-0.006108652,0,-0.061086524
1.6994844,-0.45718524,10.053288,0.42,0.63,-1.26,1770369787,0.007330383,0.010995574,-0.021991149
1.67315436,-0.44042976,10.06764984,0.14,2.73,-4.06,1770369787,0.002443461,0.047647489,-0.070860368
1.64203704,-0.4667598,10.02695796,-1.26,2.59,-3.5,1770369787,-0.021991149,0.045204028,-0.061086524
1.6037388,-0.50984532,10.04850072,0.63,2.94,-0.7,1770369787,0.010995574,0.05131268,-0.012217305
1.56304692,-0.51223896,10.0652562,-0.07,4.41,-2.38,1770369787,-0.00122173,0.07696902,-0.041538836
1.4840568,-0.5266008,10.1011608,-2.59,4.62,-2.52,1770369787,-0.045204028,0.080634211,-0.043982297
1.44575856,-0.55532448,10.09637352,0.14,4.48,-3.15,1770369787,0.002443461,0.07819075,-0.054977871
1.36676844,-0.57207996,10.07004348,-2.59,3.78,-3.29,1770369787,-0.045204028,0.065973446,-0.057421332
1.31171472,-0.59601636,10.0891926,-0.84,5.11,-1.19,1770369787,-0.014660766,0.089186325,-0.020769418
1.3045338,-0.65346372,10.07961804,0.63,2.52,-0.21,1770369787,0.010995574,0.043982297,-0.003665191
1.27820376,-0.62952732,10.0891926,-1.68,1.75,-2.87,1770369787,-0.029321531,0.030543262,-0.05009095
1.27820376,-0.60080364,10.05807528,0.91,2.17,-0.84,1770369787,0.015882496,0.037873645,-0.014660766
1.27820376,-0.58404816,10.07483076,-0.56,0.84,-2.45,1770369787,-0.009773844,0.014660766,-0.042760567
1.29017196,-0.5744736,10.04371344,0.77,0.28,-2.8,1770369787,0.013439035,0.004886922,-0.048869219
1.316502,-0.55771812,9.99105336,0.14,0.28,-3.64,1770369787,0.002443461,0.004886922,-0.063529985
1.34761932,-0.57207996,9.99105336,-0.91,2.17,-3.08,1770369787,-0.015882496,0.037873645,-0.053756141
1.38591756,-0.55771812,10.00302156,0.21,-0.21,-1.61,1770369787,0.003665191,-0.003665191,-0.028099801
1.3643748,-0.52420716,9.993447,0.84,0.98,-3.08,1770369787,0.014660766,0.017104227,-0.053756141
1.35480024,-0.52899444,10.02456432,2.03,0.07,-2.17,1770369787,0.035430184,0.00122173,-0.037873645
1.3643748,-0.50745168,10.04850072,-0.35,0.07,-1.4,1770369787,-0.006108652,0.00122173,-0.02443461
1.34522568,-0.49787712,10.07004348,-0.14,0.21,-2.38,1770369787,-0.002443461,0.003665191,-0.041538836
1.34522568,-0.51941988,10.07483076,1.47,0.28,-2.94,1770369787,0.02565634,0.004886922,-0.05131268
1.29495924,-0.51223896,10.05807528,-0.21,-0.21,0.42,1770369787,-0.003665191,-0.003665191,0.007330383
1.28777832,-0.52420716,10.07483076,0.21,-0.35,-3.08,1770369787,0.003665191,-0.006108652,-0.053756141
1.27341648,-0.53378172,10.0772244,2.03,-1.12,0.21,1770369787,0.035430184,-0.019547688,0.003665191
1.25905464,-0.52181352,10.0772244,0.77,-1.75,-0.63,1770369787,0.013439035,-0.030543262,-0.010995574
1.32368292,-0.5026644,10.09397988,2.31,-3.15,-2.31,1770369787,0.040317106,-0.054977871,-0.040317106
1.29495924,-0.50027076,10.1011608,1.26,-2.87,-1.05,1770369787,0.021991149,-0.05009095,-0.018325957
1.3404384,-0.4667598,10.10594808,2.45,-4.55,-0.84,1770369787,0.042760567,-0.079412481,-0.014660766
1.4002794,-0.48112164,10.15621452,1.75,-3.22,-2.31,1770369787,0.030543262,-0.056199602,-0.040317106
1.40985396,-0.45000432,10.13467176,2.59,-2.8,-4.41,1770369787,0.045204028,-0.048869219,-0.07696902
1.39788576,-0.42846156,10.1610018,2.45,-3.78,-0.49,1770369787,0.042760567,-0.065973446,-0.008552113
1.38352392,-0.38058876,10.13945904,0.56,-2.66,-2.94,1770369787,0.009773844,-0.046425758,-0.05131268
1.4242158,-0.40452516,10.1490336,2.1,-3.36,-1.4,1770369787,0.036651914,-0.058643063,-0.02443461
1.45772676,-0.36862056,10.15382088,0.91,-4.62,-0.63,1770369787,0.015882496,-0.080634211,-0.010995574
1.44097128,-0.3829824,10.1370654,-0.63,-3.29,-1.47,1770369787,-0.010995574,-0.057421332,-0.02565634
1.41703488,-0.42128064,10.16339544,1.54,-3.78,-2.17,1770369787,0.02687807,-0.065973446,-0.037873645
1.4481522,-0.44042976,10.14185268,1.68,-1.68,-0.28,1770369787,0.029321531,-0.029321531,-0.004886922
1.45054584,-0.41649336,10.17057636,1.19,-0.35,-1.19,1770369787,0.020769418,-0.006108652,-0.020769418
1.4601204,-0.42846156,10.18254456,3.08,-2.31,-2.1,1770369787,0.053756141,-0.040317106,-0.036651914
1.436184,-0.44042976,10.14424632,0.21,-1.54,1.33,1770369787,0.003665191,-0.02687807,0.023212879
1.45293948,-0.4308552,10.18015092,1.54,-2.03,-1.47,1770369787,0.02687807,-0.035430184,-0.02565634
1.47448224,-0.4547916,10.19930004,0.07,-2.59,0.49,1770369787,0.00122173,-0.045204028,0.008552113
1.46969496,-0.42606792,10.1849382,1.47,-1.75,-0.84,1770369787,0.02565634,-0.030543262,-0.014660766
1.43857764,-0.43564248,10.21844916,-1.47,-1.26,0.42,1770369787,-0.02565634,-0.021991149,0.007330383
1.43379036,-0.47154708,10.1610018,-4.48,-0.21,1.12,1770369787,-0.07819075,-0.003665191,0.019547688
1.4002794,-0.49787712,10.1370654,-2.31,0.42,-0.91,1770369787,-0.040317106,0.007330383,-0.015882496
1.37394936,-0.5146326,10.09876716,-2.8,-0.14,0.21,1770369787,-0.048869219,-0.002443461,0.003665191
1.31171472,-0.49548348,10.10355444,-2.52,-0.07,0.42,1770369787,-0.043982297,-0.00122173,0.007330383
1.35719388,-0.5026644,10.12030992,-1.75,-0.42,-2.17,1770369787,-0.030543262,-0.007330383,-0.037873645
1.29735288,-0.5146326,10.09876716,-2.87,-1.33,-2.73,1770369787,-0.05009095,-0.023212879,-0.047647489
1.33325748,-0.54814356,10.0413198,-0.42,-3.15,-1.96,1770369787,-0.007330383,-0.054977871,-0.034208453
1.4122476,-0.54574992,10.00780884,-0.21,-4.41,-1.19,1770369787,-0.003665191,-0.07696902,-0.020769418
1.45533312,-0.54814356,9.9814788,-0.14,-3.29,-1.33,1770369787,-0.002443461,-0.057421332,-0.023212879
1.5199614,-0.56968632,9.99105336,2.31,-3.78,-2.03,1770369787,0.040317106,-0.065973446,-0.035430184
1.58458968,-0.5625054,9.98387244,-0.14,-2.8,-1.61,1770369787,-0.002443461,-0.048869219,-0.028099801
1.63006884,-0.54814356,9.96472332,0.28,-2.45,-4.13,1770369787,0.004886922,-0.042760567,-0.072082098
1.66597344,-0.5625054,9.9575424,2.24,-1.33,-0.07,1770369787,0.039095375,-0.023212879,-0.00122173
1.6396434,-0.52899444,9.97908516,1.68,0.63,0.56,1770369787,0.029321531,0.010995574,0.009773844
1.62528156,-0.50745168,9.993447,1.89,2.1,-0.49,1770369787,0.032986723,0.036651914,-0.008552113
1.58937696,-0.50745168,10.01020248,-0.21,2.66,0.77,1770369787,-0.003665191,0.046425758,0.013439035
1.5199614,-0.48351528,10.01259612,1.12,2.59,-3.22,1770369787,0.019547688,0.045204028,-0.056199602
1.50559956,-0.47633436,10.0293516,0.98,3.64,-0.84,1770369787,0.017104227,0.063529985,-0.014660766
1.45054584,-0.4667598,10.02695796,1.19,3.85,-0.42,1770369787,0.020769418,0.067195176,-0.007330383
1.39070484,-0.44761068,10.02695796,0.56,3.43,-1.61,1770369787,0.009773844,0.059864793,-0.028099801
1.3883112,-0.45718524,10.02456432,1.54,3.43,-1.19,1770369787,0.02687807,0.059864793,-0.020769418
1.35480024,-0.44761068,10.02695796,0.21,2.87,-1.82,1770369787,0.003665191,0.05009095,-0.031764992
1.36198116,-0.43564248,10.03653252,0.98,2.87,-1.26,1770369787,0.017104227,0.05009095,-0.021991149
1.33565112,-0.46915344,10.053288,0.35,2.59,-2.17,1770369787,0.006108652,0.045204028,-0.037873645
1.33804476,-0.45957888,10.03892616,0.35,2.52,-2.03,1770369787,0.006108652,0.043982297,-0.035430184
1.33565112,-0.47154708,10.05568164,0.56,1.89,2.24,1770369787,0.009773844,0.032986723,0.039095375
1.30932108,-0.47154708,10.10834172,-2.24,2.17,-2.87,1770369787,-0.039095375,0.037873645,-0.05009095
1.2925656,-0.49787712,10.0891926,0.56,1.96,1.54,1770369787,0.009773844,0.034208453,0.02687807
1.2805974,-0.48351528,10.09397988,0.07,1.4,-2.31,1770369787,0.00122173,0.02443461,-0.040317106
1.2686292,-0.4428234,10.0772244,-0.7,1.75,-1.4,1770369787,-0.012217305,0.030543262,-0.02443461
1.23751188,-0.4428234,10.10834172,-0.84,1.19,0.28,1770369787,-0.014660766,0.020769418,0.004886922
1.23990552,-0.478728,10.07004348,-0.14,0,-2.59,1770369787,-0.002443461,0,-0.045204028
1.21118184,-0.47154708,10.0652562,-0.77,0,0.07,1770369787,-0.013439035,0,0.00122173
1.19203272,-0.49308984,10.04371344,-0.77,-0.07,0,1770369787,-0.013439035,-0.00122173,0
1.20639456,-0.50745168,10.04610708,-1.68,-1.54,-1.4,1770369787,-0.029321531,-0.02687807,-0.02443461
1.19682,-0.54096264,10.0293516,-1.82,-1.26,-1.96,1770369787,-0.031764992,-0.021991149,-0.034208453
1.1848518,-0.57207996,9.98865972,-1.82,-0.91,-2.52,1770369787,-0.031764992,-0.015882496,-0.043982297
1.20639456,-0.59601636,10.04371344,-1.19,-1.33,-1.26,1770369787,-0.020769418,-0.023212879,-0.021991149
1.24708644,-0.60559092,10.04850072,-1.33,-2.31,-2.17,1770369787,-0.023212879,-0.040317106,-0.037873645
1.27581012,-0.57207996,10.06046892,-2.59,-2.24,-1.26,1770369787,-0.045204028,-0.039095375,-0.021991149
1.3045338,-0.56729268,10.03174524,-2.24,-2.17,-1.61,1770369788,-0.039095375,-0.037873645,-0.028099801
1.3404384,-0.57926088,9.99823428,-1.89,-2.24,-4.76,1770369788,-0.032986723,-0.039095375,-0.083077672
1.35001296,-0.55771812,10.02217068,-0.42,-2.87,-2.52,1770369788,-0.007330383,-0.05009095,-0.043982297
1.36916208,-0.51702624,10.01020248,0,-4.41,-2.38,1770369788,0,-0.07696902,-0.041538836
1.44097128,-0.46197252,10.05568164,-1.12,-2.52,0,1770369788,-0.019547688,-0.043982297,0
1.45054584,-0.47154708,10.0652562,-2.94,-2.87,-3.99,1770369788,-0.05131268,-0.05009095,-0.069638637
1.46490768,-0.45000432,10.07004348,0.14,-2.1,0.84,1770369788,0.002443461,-0.036651914,0.014660766
1.42900308,-0.43564248,10.08201168,-2.38,-1.47,-5.74,1770369788,-0.041538836,-0.02565634,-0.100181899
1.46969496,-0.40213152,10.1250972,0.42,-0.77,-4.41,1770369788,0.007330383,-0.013439035,-0.07696902
1.436184,-0.3949506,10.1370654,-0.35,-1.12,-3.08,1770369788,-0.006108652,-0.019547688,-0.053756141
1.46490768,-0.418887,10.16578908,-3.15,-0.14,-1.82,1770369788,-0.054977871,-0.002443461,-0.031764992
1.45054584,-0.40213152,10.17297,-0.77,-0.21,-2.94,1770369788,-0.013439035,-0.003665191,-0.05131268
1.45054584,-0.4547916,10.1250972,-0.56,-0.7,-2.8,1770369788,-0.009773844,-0.012217305,-0.048869219
1.46969496,-0.46915344,10.113129,0,-1.12,0.98,1770369788,0,-0.019547688,0.017104227
1.50081228,-0.4547916,10.08679896,0.42,-0.98,-6.44,1770369788,0.007330383,-0.017104227,-0.112399204
1.52474868,-0.5026644,10.06046892,-2.87,-1.19,0.21,1770369788,-0.05009095,-0.020769418,0.003665191
1.50081228,-0.48590892,10.11552264,-1.26,0.98,-3.22,1770369788,-0.021991149,0.017104227,-0.056199602
1.48166316,-0.4906962,10.13945904,-1.12,1.89,-2.38,1770369788,-0.019547688,0.032986723,-0.041538836
1.42660944,-0.5026644,10.15621452,-1.12,1.75,0.21,1770369788,-0.019547688,0.030543262,0.003665191
1.42182216,-0.50745168,10.13945904,-0.56,2.1,-2.38,1770369788,-0.009773844,0.036651914,-0.041538836
1.39070484,-0.54814356,10.15382088,-3.92,2.17,-1.26,1770369788,-0.068416907,0.037873645,-0.021991149
1.35719388,-0.57207996,10.1490336,-1.33,2.31,-2.59,1770369788,-0.023212879,0.040317106,-0.045204028
1.32368292,-0.56489904,10.1250972,-3.22,2.24,-2.03,1770369788,-0.056199602,0.039095375,-0.035430184
1.3404384,-0.55771812,10.12270356,-0.42,1.26,-0.21,1770369788,-0.007330383,0.021991149,-0.003665191
1.29974652,-0.54096264,10.13227812,-2.66,1.19,-3.29,1770369788,-0.046425758,0.020769418,-0.057421332
1.32607656,-0.54335628,10.09876716,-3.43,1.61,-0.63,1770369788,-0.059864793,0.028099801,-0.010995574
1.31171472,-0.55532448,10.06764984,-1.96,1.96,-2.52,1770369788,-0.034208453,0.034208453,-0.043982297
1.33565112,-0.56968632,10.04610708,-1.89,2.66,-0.77,1770369788,-0.032986723,0.046425758,-0.013439035
1.3643748,-0.56968632,10.0413198,-1.33,1.61,1.26,1770369788,-0.023212879,0.028099801,0.021991149
1.36916208,-0.5864418,10.0891926,-2.59,2.17,-2.03,1770369788,-0.045204028,0.037873645,-0.035430184
1.38113028,-0.56729268,10.13467176,-3.92,2.73,0.84,1770369788,-0.068416907,0.047647489,0.014660766
1.33325748,-0.58165452,10.11073536,-1.89,3.43,-2.94,1770369788,-0.032986723,0.059864793,-0.05131268
1.30692744,-0.59601636,10.16818272,-2.87,3.15,0.42,1770369788,-0.05009095,0.054977871,0.007330383
1.30214016,-0.58165452,10.13467176,-1.68,3.08,0.49,1770369788,-0.029321531,0.053756141,0.008552113
1.27820376,-0.57926088,10.15860816,-0.77,2.87,-2.45,1770369788,-0.013439035,0.05009095,-0.042760567
1.25187372,-0.57686724,10.14185268,-2.45,2.73,-1.05,1770369788,-0.042760567,0.047647489,-0.018325957
1.2327246,-0.54096264,10.12030992,0.14,2.31,-2.52,1770369788,0.002443461,0.040317106,-0.043982297
1.23033096,-0.55532448,10.06764984,-3.36,2.31,1.12,1770369788,-0.058643063,0.040317106,0.019547688
1.20639456,-0.58883544,10.04371344,-0.21,2.17,-1.05,1770369788,-0.003665191,0.037873645,-0.018325957
1.20400092,-0.56489904,10.03892616,-0.77,0.98,0.42,1770369788,-0.013439035,0.017104227,0.007330383
1.2207564,-0.58404816,10.03174524,-1.68,2.1,-0.35,1770369788,-0.029321531,0.036651914,-0.006108652
1.21836276,-0.60559092,10.01259612,-1.19,1.54,-0.07,1770369788,-0.020769418,0.02687807,-0.00122173
1.21596912,-0.58165452,10.04371344,-0.98,1.96,1.19,1770369788,-0.017104227,0.034208453,0.020769418
1.24229916,-0.56729268,10.053288,-0.7,2.66,0.84,1770369788,-0.012217305,0.046425758,0.014660766
1.26144828,-0.60080364,10.04610708,-1.47,3.01,-0.84,1770369788,-0.02565634,0.05253441,-0.014660766
1.22554368,-0.60319728,10.07483076,-3.78,2.24,-0.28,1770369788,-0.065973446,0.039095375,-0.004886922
1.2446928,-0.58165452,10.03653252,-1.12,1.54,-1.68,1770369788,-0.019547688,0.02687807,-0.029321531
1.23033096,-0.57207996,10.0891926,-1.33,0.98,-0.28,1770369788,-0.023212879,0.017104227,-0.004886922
1.18963908,-0.59122908,10.0772244,-0.56,2.17,0.42,1770369788,-0.009773844,0.037873645,0.007330383
1.21357548,-0.59841,10.08440532,-0.14,0.77,-2.17,1770369788,-0.002443461,0.013439035,-0.037873645
1.17767088,-0.5864418,10.07243712,-1.75,0.91,1.89,1770369788,-0.030543262,0.015882496,0.032986723
1.19682,-0.57207996,10.1250972,-0.35,0,-2.8,1770369788,-0.006108652,0,-0.048869219
1.16570268,-0.56489904,10.10594808,-2.31,-0.63,0.56,1770369788,-0.040317106,-0.010995574,0.009773844
1.1609154,-0.56968632,10.11791628,0.84,0.14,0.77,1770369788,0.014660766,0.002443461,0.013439035
1.19442636,-0.55293084,10.11552264,-0.49,-0.49,-1.68,1770369788,-0.008552113,-0.008552113,-0.029321531
1.21596912,-0.55771812,10.09158624,-0.77,-0.77,-1.4,1770369788,-0.013439035,-0.013439035,-0.02443461
1.2207564,-0.56011176,10.10355444,0.14,-1.33,-1.4,1770369788,0.002443461,-0.023212879,-0.02443461
1.22315004,-0.57207996,10.14424632,-0.56,-1.33,-0.35,1770369788,-0.009773844,-0.023212879,-0.006108652
1.2327246,-0.56489904,10.14185268,0.21,-1.89,0.35,1770369788,0.003665191,-0.032986723,0.006108652
1.16809632,-0.59841,10.12749084,1.54,-1.19,-1.68,1770369788,0.02687807,-0.020769418,-0.029321531
1.19203272,-0.61277184,10.15142724,-2.8,-3.01,-0.35,1770369788,-0.048869219,-0.05253441,-0.006108652
1.15373448,-0.60798456,10.11791628,0.77,-2.38,-3.08,1770369788,0.013439035,-0.041538836,-0.053756141
1.16570268,-0.56729268,10.11791628,1.26,-4.13,-0.49,1770369788,0.021991149,-0.072082098,-0.008552113
1.18006452,-0.5266008,10.053288,1.12,-4.41,-1.75,1770369788,0.019547688,-0.07696902,-0.030543262
1.16330904,-0.50027076,10.02217068,0.63,-5.11,-3.15,1770369788,0.010995574,-0.089186325,-0.054977871
1.1609154,-0.48590892,9.97190424,-0.98,-5.53,-1.47,1770369788,-0.017104227,-0.096516708,-0.02565634
1.19682,-0.53138808,9.98387244,-0.98,-5.11,-2.38,1770369788,-0.017104227,-0.089186325,-0.041538836
1.28538468,-0.54574992,9.9695106,-1.19,-4.34,-0.63,1770369788,-0.020769418,-0.07574729,-0.010995574
1.33565112,-0.55771812,9.98626608,3.01,-4.2,-1.05,1770369788,0.05253441,-0.073303829,-0.018325957
1.35719388,-0.54574992,10.03413888,0.07,-4.41,-1.05,1770369788,0.00122173,-0.07696902,-0.018325957
1.376343,-0.55771812,10.08201168,0.49,-3.22,-3.64,1770369788,0.008552113,-0.056199602,-0.063529985
1.42182216,-0.5744736,10.10834172,0.7,-2.87,-1.96,1770369788,0.012217305,-0.05009095,-0.034208453
1.43857764,-0.6103782,10.14424632,0.21,-2.1,-2.52,1770369788,0.003665191,-0.036651914,-0.043982297
1.40267304,-0.61755912,10.14424632,0.98,-1.47,0.77,1770369788,0.017104227,-0.02565634,0.013439035
1.40506668,-0.60080364,10.14663996,1.54,-0.77,-1.33,1770369788,0.02687807,-0.013439035,-0.023212879
1.36198116,-0.61995276,10.14424632,-1.89,-0.28,-0.84,1770369788,-0.032986723,-0.004886922,-0.014660766
1.3404384,-0.6103782,10.15382088,2.31,-0.28,-1.61,1770369788,0.040317106,-0.004886922,-0.028099801
1.27341648,-0.58165452,10.13227812,0.56,0.21,-0.07,1770369788,0.009773844,0.003665191,-0.00122173
1.23511824,-0.57207996,10.14185268,-0.84,-1.47,1.05,1770369788,-0.014660766,-0.02565634,0.018325957
1.20400092,-0.5744736,10.13945904,-0.42,-0.56,-2.87,1770369788,-0.007330383,-0.009773844,-0.05009095
1.1728836,-0.55771812,10.08440532,-0.77,-1.12,-0.07,1770369788,-0.013439035,-0.019547688,-0.00122173
1.15852176,-0.62474004,10.07004348,1.75,-0.56,-0.7,1770369788,0.030543262,-0.009773844,-0.012217305
1.17527724,-0.60559092,10.04371344,-0.35,-2.87,-2.24,1770369788,-0.006108652,-0.05009095,-0.039095375
1.1489472,-0.65107008,10.04610708,1.68,-2.87,-0.56,1770369788,0.029321531,-0.05009095,-0.009773844
1.17048996,-0.64867644,10.0652562,1.12,-3.78,-2.03,1770369788,0.019547688,-0.065973446,-0.035430184
1.17048996,-0.63910188,10.0652562,0.77,-3.85,0.98,1770369788,0.013439035,-0.067195176,0.017104227
1.18724544,-0.64867644,10.09158624,1.54,-3.99,-0.35,1770369788,0.02687807,-0.069638637,-0.006108652
1.24708644,-0.64149552,10.1011608,0.35,-4.41,-0.56,1770369788,0.006108652,-0.07696902,-0.009773844
1.27341648,-0.66064464,10.1250972,0.98,-3.08,2.1,1770369788,0.017104227,-0.053756141,0.036651914
1.2925656,-0.67979376,10.08201168,1.54,-4.13,-2.03,1770369788,0.02687807,-0.072082098,-0.035430184
1.35001296,-0.7061238,10.0772244,-0.35,-3.99,2.8,1770369788,-0.006108652,-0.069638637,0.048869219
1.29017196,-0.6941556,10.12988448,1.33,-3.43,-1.4,1770369788,0.023212879,-0.059864793,-0.02443461
1.2925656,-0.63670824,10.17297,2.59,-2.59,3.99,1770369788,0.045204028,-0.045204028,0.069638637
1.27341648,-0.58883544,10.21844916,1.33,-2.45,2.03,1770369788,0.023212879,-0.042760567,0.035430184
1.23751188,-0.54814356,10.2567474,0.7,-2.38,3.5,1770369788,0.012217305,-0.041538836,0.061086524
1.24229916,-0.58883544,10.25435376,0.91,-3.22,3.43,1770369788,0.015882496,-0.056199602,0.059864793
1.2327246,-0.55293084,10.26392832,0.91,-3.43,4.2,1770369788,0.015882496,-0.059864793,0.073303829
1.21357548,-0.53617536,10.25196012,1.19,-3.43,4.34,1770369788,0.020769418,-0.059864793,0.07574729
1.20639456,-0.54096264,10.21605552,1.54,-4.97,5.74,1770369788,0.02687807,-0.086742864,0.100181899
1.21596912,-0.56011176,10.22323644,-0.7,-6.3,3.99,1770369788,-0.012217305,-0.109955743,0.069638637
1.2686292,-0.56968632,10.18015092,0.7,-6.44,5.39,1770369788,0.012217305,-0.112399204,0.094073247
1.28777832,-0.58165452,10.13227812,-0.42,-5.88,4.48,1770369788,-0.007330383,-0.10262536,0.07819075
1.29735288,-0.5864418,10.1370654,-0.77,-6.86,6.23,1770369788,-0.013439035,-0.119729587,0.108734012
1.33804476,-0.57686724,10.13467176,1.96,-4.97,5.81,1770369788,0.034208453,-0.086742864,0.10140363
1.34522568,-0.56729268,10.14663996,-1.19,-4.2,5.04,1770369788,-0.020769418,-0.073303829,0.087964594
1.3404384,-0.51702624,10.1011608,0.35,-3.22,6.3,1770369788,0.006108652,-0.056199602,0.109955743
1.35480024,-0.49787712,10.09158624,0.56,-2.8,5.67,1770369788,0.009773844,-0.048869219,0.098960169
1.28777832,-0.49548348,10.10594808,-0.35,-1.75,8.26,1770369788,-0.006108652,-0.030543262,0.144164196
1.25426736,-0.5146326,10.08201168,-1.19,-1.68,7.14,1770369788,-0.020769418,-0.029321531,0.124616509
1.2087882,-0.478728,9.99823428,-1.47,-2.59,10.85,1770369788,-0.02565634,-0.045204028,0.189368224
1.23511824,-0.5505372,10.01020248,-2.03,-2.8,8.33,1770369788,-0.035430184,-0.048869219,0.145385927
1.19203272,-0.55293084,9.95275512,-0.98,-3.01,8.54,1770369788,-0.017104227,-0.05253441,0.149051118
1.2087882,-0.6103782,9.91685052,-2.1,-3.29,9.1,1770369788,-0.036651914,-0.057421332,0.158824962
1.24708644,-0.65585736,9.9455742,-0.35,-2.66,7.84,1770369788,-0.006108652,-0.046425758,0.136833813
1.29735288,-0.64867644,9.933606,-1.47,-3.01,7.84,1770369788,-0.02565634,-0.05253441,0.136833813
1.33086384,-0.71091108,9.91445688,-2.66,-3.64,5.81,1770369788,-0.046425758,-0.063529985,0.10140363
1.37155572,-0.73724112,9.91445688,0.21,-3.01,4.13,1770369788,0.003665191,-0.05253441,0.072082098
1.38352392,-0.72766656,9.93121236,0,-2.87,5.81,1770369788,0,-0.05009095,0.10140363
1.44336492,-0.69894288,9.93121236,2.1,-1.54,5.39,1770369788,0.036651914,-0.02687807,0.094073247
1.496025,-0.66064464,9.92403144,1.68,-1.89,2.52,1770369788,0.029321531,-0.032986723,0.043982297
1.52474868,-0.66064464,9.93599964,0.91,-0.98,1.61,1770369788,0.015882496,-0.017104227,0.028099801
1.59895152,-0.68936832,9.95036148,1.96,-1.96,1.96,1770369788,0.034208453,-0.034208453,0.034208453
1.66597344,-0.64867644,9.9814788,0.63,-1.47,2.1,1770369788,0.010995574,-0.02565634,0.036651914
1.6994844,-0.6941556,9.98865972,1.19,-0.35,-0.35,1770369788,0.020769418,-0.006108652,-0.006108652
1.70427168,-0.64149552,10.00302156,3.36,0.77,0.42,1770369788,0.058643063,0.013439035,0.007330383
1.69469712,-0.63910188,9.99105336,2.03,0.7,1.47,1770369789,0.035430184,0.012217305,0.02565634
1.7593254,-0.66303828,10.02456432,3.36,1.54,-1.47,1770369789,0.058643063,0.02687807,-0.02565634
1.61331336,-0.58883544,9.95036148,0,4.27,-1.33,1770369789,0,0.074525559,-0.023212879
1.64203704,-0.61516548,10.01020248,0.98,4.83,-0.56,1770369789,0.017104227,0.084299403,-0.009773844
1.64921796,-0.62952732,10.06764984,1.82,6.3,-1.4,1770369789,0.031764992,0.109955743,-0.02443461
1.60852608,-0.61995276,10.07004348,-0.56,7.42,-1.47,1770369789,-0.009773844,0.12950343,-0.02565634
1.5199614,-0.57926088,10.01977704,1.19,7.07,-4.06,1770369789,0.020769418,0.123394778,-0.070860368
1.43857764,-0.59362272,10.04610708,-2.1,7.77,0.56,1770369789,-0.036651914,0.135612083,0.009773844
1.34522568,-0.54574992,10.05568164,0.21,8.4,-1.61,1770369789,0.003665191,0.146607657,-0.028099801
1.376343,-0.5864418,10.08201168,0.35,7.21,0,1770369789,0.006108652,0.125838239,0
1.23751188,-0.57926088,10.0652562,-0.56,5.53,-0.14,1770369789,-0.009773844,0.096516708,-0.002443461
1.20160728,-0.66543192,10.07243712,-1.33,4.27,-0.56,1770369789,-0.023212879,0.074525559,-0.009773844
1.136979,-0.55771812,10.07961804,-0.07,4.06,0.42,1770369789,-0.00122173,0.070860368,0.007330383
1.15852176,-0.59362272,10.13945904,0.77,4.55,0.28,1770369789,0.013439035,0.079412481,0.004886922
1.07235072,-0.56489904,10.18015092,0.35,3.85,-0.49,1770369789,0.006108652,0.067195176,-0.008552113
1.01490336,-0.51702624,10.1849382,-0.42,1.75,0.84,1770369789,-0.007330383,0.030543262,0.014660766
0.96703056,-0.538569,10.17775728,0.56,-1.12,-0.35,1770369789,0.009773844,-0.019547688,-0.006108652
0.94309416,-0.53378172,10.23041736,1.89,-1.54,0.56,1770369789,0.032986723,-0.02687807,0.009773844
0.9335196,-0.43324884,10.232811,1.47,-3.78,2.45,1770369789,0.02565634,-0.065973446,0.042760567
0.95984964,-0.46197252,10.23041736,0.56,-5.67,3.01,1770369789,0.009773844,-0.098960169,0.05253441
0.98378604,-0.50027076,10.22802372,-1.19,-6.51,-0.63,1770369789,-0.020769418,-0.113620934,-0.010995574
1.01490336,-0.5266008,10.13227812,0,-7.28,1.19,1770369789,0,-0.12705997,0.020769418
1.03644612,-0.53617536,10.113129,-0.21,-8.33,0.21,1770369789,-0.003665191,-0.145385927,0.003665191
1.136979,-0.56011176,10.08679896,1.75,-8.05,2.45,1770369789,0.030543262,-0.140499005,0.042760567
1.15134084,-0.56729268,10.11552264,2.1,-8.4,0.28,1770369789,0.036651914,-0.146607657,0.004886922
1.19203272,-0.53378172,10.12988448,3.22,-10.29,1.33,1770369789,0.056199602,-0.17959438,0.023212879
1.25187372,-0.5146326,10.18015092,2.24,-10.99,-0.07,1770369789,0.039095375,-0.191811685,-0.00122173
1.28538468,-0.49308984,10.16339544,2.03,-10.43,-0.91,1770369789,0.035430184,-0.182037841,-0.015882496
1.33804476,-0.44761068,10.16818272,2.1,-11.97,-2.38,1770369789,0.036651914,-0.208915911,-0.041538836
1.43379036,-0.48112164,10.15860816,2.66,-12.67,-1.26,1770369789,0.046425758,-0.221133216,-0.021991149
1.4720886,-0.51702624,10.0891926,0.56,-12.53,-2.52,1770369789,0.009773844,-0.218689755,-0.043982297
1.56544056,-0.57207996,10.03892616,0.14,-13.65,-3.99,1770369789,0.002443461,-0.238237443,-0.069638637
1.65639888,-0.6343146,10.02456432,0.21,-13.44,-2.38,1770369789,0.003665191,-0.234572251,-0.041538836
1.70666532,-0.6462828,10.01498976,-0.14,-11.41,-3.92,1770369789,-0.002443461,-0.199142068,-0.068416907
1.80001728,-0.58404816,10.01498976,0.14,-11.55,-1.96,1770369789,0.002443461,-0.201585529,-0.034208453
1.9029438,-0.50745168,10.08440532,-1.19,-8.68,-6.02,1770369789,-0.020769418,-0.151494579,-0.105068821
1.89815652,-0.48590892,10.0652562,-0.35,-6.58,-3.71,1770369789,-0.006108652,-0.114842665,-0.064751715
1.9268802,-0.47154708,10.09637352,-1.75,-4.76,-2.52,1770369789,-0.030543262,-0.083077672,-0.043982297
1.95560388,-0.44761068,10.12270356,-0.77,-4.41,-3.15,1770369789,-0.013439035,-0.07696902,-0.054977871
1.91730564,-0.42128064,10.09876716,-2.1,-2.24,-3.64,1770369789,-0.036651914,-0.039095375,-0.063529985
1.9029438,-0.39734424,10.06286256,-2.31,-0.14,-5.11,1770369789,-0.040317106,-0.002443461,-0.089186325
1.90533744,-0.36383328,10.06046892,-2.38,1.68,-3.85,1770369789,-0.041538836,0.029321531,-0.067195176
1.8790074,-0.38776968,10.06046892,-3.15,2.38,-5.53,1770369789,-0.054977871,0.041538836,-0.096516708
1.80480456,-0.40452516,10.07961804,-2.87,1.82,-5.81,1770369789,-0.05009095,0.031764992,-0.10140363
1.80001728,-0.40213152,10.09637352,-2.87,1.33,-7.21,1770369789,-0.05009095,0.023212879,-0.125838239
1.76171904,-0.44042976,10.0891926,-5.6,3.01,-6.86,1770369789,-0.097738438,0.05253441,-0.119729587
1.74256992,-0.47154708,10.1011608,-2.31,3.01,-9.1,1770369789,-0.040317106,0.05253441,-0.158824962
1.7473572,-0.49308984,10.04850072,-2.66,2.17,-7.77,1770369789,-0.046425758,0.037873645,-0.135612083
1.76889996,-0.53617536,10.00780884,-0.91,2.73,-7.07,1770369789,-0.015882496,0.047647489,-0.123394778
1.73778264,-0.57686724,9.98626608,-1.26,3.64,-6.86,1770369789,-0.021991149,0.063529985,-0.119729587
1.71863352,-0.59362272,9.9575424,-1.82,5.39,-9.1,1770369789,-0.031764992,0.094073247,-0.158824962
1.6875162,-0.59122908,9.87137136,-0.63,5.18,-6.86,1770369789,-0.010995574,0.090408055,-0.119729587
1.66118616,-0.64388916,9.88812684,1.75,6.09,-9.38,1770369789,0.030543262,0.106290551,-0.163711884
1.615707,-0.66064464,9.9216378,2.31,7.42,-4.97,1770369789,0.040317106,0.12950343,-0.086742864
1.58458968,-0.66303828,9.98865972,4.13,7.14,-9.73,1770369789,0.072082098,0.124616509,-0.169820536
1.45533312,-0.62952732,10.03892616,0.91,7.14,-6.65,1770369789,0.015882496,0.124616509,-0.116064395
1.3883112,-0.62713368,10.0054152,1.33,7.63,-7.21,1770369789,0.023212879,0.133168622,-0.125838239
1.29974652,-0.72287928,10.04371344,1.75,5.88,-7.14,1770369789,0.030543262,0.10262536,-0.124616509
1.23990552,-0.73724112,10.06046892,2.87,4.62,-5.18,1770369789,0.05009095,0.080634211,-0.090408055
1.19682,-0.7899012,9.98865972,-0.21,2.73,-4.76,1770369789,-0.003665191,0.047647489,-0.083077672
1.17527724,-0.75639024,9.95514876,-1.12,1.82,-5.46,1770369789,-0.019547688,0.031764992,-0.095294977
1.18245816,-0.73484748,9.9455742,0.98,1.54,-2.31,1770369789,0.017104227,0.02687807,-0.040317106
1.15373448,-0.6702192,9.98626608,-0.63,2.73,-1.26,1770369789,-0.010995574,0.047647489,-0.021991149
1.12979808,-0.60319728,10.00780884,0.35,2.45,-1.4,1770369789,0.006108652,0.042760567,-0.02443461
1.11782988,-0.56729268,9.99584064,-0.14,1.68,-2.03,1770369789,-0.002443461,0.029321531,-0.035430184
1.08671256,-0.56968632,9.95993604,-3.01,0.77,-1.75,1770369789,-0.05253441,0.013439035,-0.030543262
1.03644612,-0.56968632,9.9695106,-0.98,1.75,-0.35,1770369789,-0.017104227,0.030543262,-0.006108652
1.01490336,-0.59362272,10.01977704,-1.19,0.21,1.33,1770369789,-0.020769418,0.003665191,0.023212879
0.9694242,-0.65346372,10.03413888,0,-0.14,0.84,1770369789,0,-0.002443461,0.014660766
0.94309416,-0.63910188,10.02217068,-0.7,-1.68,0.63,1770369789,-0.012217305,-0.029321531,0.010995574
0.91437048,-0.72287928,10.0054152,-0.77,-3.01,-0.49,1770369789,-0.013439035,-0.05253441,-0.008552113
0.8736786,-0.78032664,9.9814788,0.7,-3.5,2.66,1770369789,0.012217305,-0.061086524,0.046425758
0.89043408,-0.82341216,9.9216378,1.12,-3.92,1.26,1770369789,0.019547688,-0.068416907,0.021991149
0.957456,-0.8617104,9.85461588,1.54,-6.09,4.9,1770369789,0.02687807,-0.106290551,0.085521133
0.93112596,-0.84016764,9.85461588,2.8,-7.28,3.01,1770369789,0.048869219,-0.12705997,0.05253441
0.95506236,-0.77314572,9.93839328,1.68,-9.31,4.9,1770369789,0.029321531,-0.162490153,0.085521133
1.04841432,-0.7061238,10.0293516,3.57,-11.06,3.64,1770369789,0.062308254,-0.193033415,0.063529985
1.13219172,-0.59362272,10.113129,2.45,-13.3,4.13,1770369789,0.042760567,-0.232128791,0.072082098
1.19921364,-0.50505804,10.17536364,4.9,-14.21,5.25,1770369789,0.085521133,-0.248011287,0.091629786
1.35001296,-0.39973788,10.24717284,3.99,-15.26,5.6,1770369789,0.069638637,-0.266337244,0.097738438
1.46730132,-0.27766224,10.35488664,4.9,-15.82,6.86,1770369789,0.085521133,-0.276111088,0.119729587
1.6037388,-0.20106576,10.4602068,3.57,-16.52,4.83,1770369789,0.062308254,-0.288328392,0.084299403
1.69230348,-0.01675548,10.5080796,3.29,-16.17,6.86,1770369789,0.057421332,-0.28221974,0.119729587
1.83592188,0.17234208,10.53919692,3.78,-15.96,6.93,1770369789,0.065973446,-0.278554549,0.120951317
1.94602932,0.24415128,10.66845348,3.36,-14.28,7.28,1770369789,0.058643063,-0.249233017,0.12705997
2.02023216,0.4308552,10.63494252,-0.21,-13.72,8.33,1770369789,-0.003665191,-0.239459173,0.145385927
2.10879684,0.56968632,10.70914536,-1.12,-12.18,7.77,1770369789,-0.019547688,-0.212581103,0.135612083
2.16385056,0.68936832,10.64212344,-3.57,-10.08,8.4,1770369789,-0.062308254,-0.175929189,0.146607657
2.14948872,0.75160296,10.39797216,-7.14,-9.24,11.69,1770369789,-0.124616509,-0.161268423,0.20402899
2.19257424,0.61755912,10.27110924,-8.96,-6.44,8.4,1770369789,-0.156381501,-0.112399204,0.146607657
2.19496788,0.45000432,10.00062792,-10.01,-3.64,8.47,1770369789,-0.174707458,-0.063529985,0.147829388
2.2380534,0.2034594,9.84264768,-7.35,-1.12,5.11,1770369789,-0.1282817,-0.019547688,0.089186325
2.25720252,-0.04069188,9.7181784,-7.91,2.52,6.37,1770369789,-0.138055544,0.043982297,0.111177473
2.24044704,-0.23218308,9.64397556,-3.08,4.69,4.9,1770369789,-0.053756141,0.081855942,0.085521133
2.23565976,-0.45718524,9.58413456,-2.59,9.03,0.63,1770369789,-0.045204028,0.157603231,0.010995574
2.24044704,-0.65346372,9.56737908,-2.03,12.25,1.05,1770369789,-0.035430184,0.213802833,0.018325957
2.21172336,-0.85213584,9.5865282,0.35,15.12,-1.61,1770369789,0.006108652,0.263893783,-0.028099801
2.1064032,-0.95506236,9.55780452,1.12,16.030001,-3.99,1770369789,0.019547688,0.279776297,-0.069638637
2.05613676,-1.07953164,9.48120804,1.54,20.16,-1.96,1770369789,0.02687807,0.351858377,-0.034208453
1.94363568,-1.21836276,9.36152604,3.85,21.35,-6.09,1770369789,0.067195176,0.372627795,-0.106290551
1.86225192,-1.33086384,9.29450412,2.8,22.540001,-6.3,1770369789,0.048869219,0.393397231,-0.109955743
1.7473572,-1.38591756,9.32083416,5.88,22.540001,-5.53,1770369789,0.10262536,0.393397231,-0.096516708
1.64921796,-1.34522568,9.5266872,7.42,24.92,-5.88,1770369789,0.12950343,0.43493605,-0.10262536
1.55347236,-1.27820376,9.78759396,6.86,26.25,-5.95,1770369789,0.119729587,0.458148929,-0.10384709
1.43857764,-1.14176628,10.17057636,7,27.719999,-8.82,1770369789,0.122173048,0.483805251,-0.15393804
1.23751188,-0.98378604,10.4602068,7.21,30.59,-7.49,1770369789,0.125838239,0.533896218,-0.130725161
0.9694242,-0.8138376,10.56552696,7.56,32.41,-11.97,1770369789,0.131946891,0.565661211,-0.208915911
0.67740012,-0.65346372,10.65887892,5.67,33.529999,-12.74,1770369789,0.098960169,0.585208881,-0.222354947
0.42606792,-0.43324884,10.73786904,4.76,32.689999,-15.89,1770369789,0.083077672,0.570548115,-0.277332818
0.21064032,-0.22978944,10.84079556,3.01,30.24,-16.66,1770369789,0.05253441,0.527787566,-0.290771853
0.01914912,-0.11489472,10.94611572,2.1,26.040001,-16.73,1770369789,0.036651914,0.454483755,-0.291993584
-0.06941556,0.00239364,11.03946768,0.98,20.719999,-20.02,1770369789,0.017104227,0.361632204,-0.349414916
-0.08138376,0.059841,11.1184578,-2.1,14.84,-21.35,1770369789,-0.036651914,0.259006861,-0.372627795
-0.04308552,0.14601204,11.07297864,-2.8,8.4,-24.290001,1770369789,-0.048869219,0.146607657,-0.423940493
0.07659648,0.20106576,10.97244576,-3.71,1.33,-24.08,1770369789,-0.064751715,0.023212879,-0.420275284
0.2752686,0.25372584,10.83361464,-6.02,-4.41,-28.77,1770369789,-0.105068821,-0.07696902,-0.502131226
0.45239796,0.32074776,10.80249732,-6.44,-9.45,-33.25,1770369789,-0.112399204,-0.164933614,-0.580321976
0.61995276,0.34947144,10.82882736,-6.02,-12.32,-31.92,1770369789,-0.105068821,-0.215024564,-0.557109097
0.74442204,0.478728,10.8551574,-4.69,-13.09,-35.419998,1770369789,-0.081855942,-0.228463599,-0.618195586
0.8258058,0.58165452,10.8072846,-7,-13.44,-37.240002,1770369789,-0.122173048,-0.234572251,-0.649960648
0.97660512,0.70133652,10.6636662,-6.58,-12.74,-43.049999,1770369789,-0.114842665,-0.222354947,-0.751364226
1.0412334,0.81623124,10.53440964,-7.21,-12.67,-44.310001,1770369789,-0.125838239,-0.221133216,-0.773355409
1.12261716,0.85213584,10.30222656,-6.86,-13.23,-47.669998,1770369789,-0.119729587,-0.23090706,-0.83199842
1.17527724,0.82819944,10.14424632,-6.51,-12.32,-48.02,1770369789,-0.113620934,-0.215024564,-0.838107107
1.25426736,0.84256128,10.02695796,-5.81,-11.9,-48.09,1770369789,-0.10140363,-0.207694181,-0.839328837
1.3404384,0.78272028,10.00062792,-6.23,-9.94,-52.990002,1770369790,-0.108734012,-0.173485728,-0.924850006
1.38352392,0.68458104,10.0413198,-6.3,-10.01,-51.169998,1770369790,-0.109955743,-0.174707458,-0.893084943
1.40267304,0.57686724,10.0413198,-6.37,-7.98,-55.09,1770369790,-0.111177473,-0.139277274,-0.961501885
1.41464124,0.41170608,10.0772244,-6.02,-7.98,-54.880001,1770369790,-0.105068821,-0.139277274,-0.957836711
1.38352392,0.24893856,10.16578908,-8.68,-6.79,-56.279999,1770369790,-0.151494579,-0.118507856,-0.982271286
1.33565112,0.10532016,10.09637352,-8.12,-7.07,-54.669998,1770369790,-0.141720735,-0.123394778,-0.954171467
1.27341648,0.00957456,9.96472332,-8.89,-7.84,-53.970001,1770369790,-0.155159771,-0.136833813,-0.941954215
1.15134084,-0.12925656,9.8258922,-9.24,-11.55,-49.560001,1770369790,-0.161268423,-0.201585529,-0.864985195
1.05080796,-0.24175764,9.6104646,-10.08,-14.28,-48.369999,1770369790,-0.175929189,-0.249233017,-0.844215742
1.00772244,-0.41409972,9.42136704,-10.99,-17.5,-45.779999,1770369790,-0.191811685,-0.305432619,-0.799011714
0.94070052,-0.55771812,9.04556556,-9.8,-20.65,-44.869999,1770369790,-0.171042267,-0.360410491,-0.783129218
0.95506236,-0.658251,8.81816976,-7,-22.4,-41.720001,1770369790,-0.122173048,-0.390953752,-0.728151381
1.02687156,-0.70851744,8.78226516,-3.78,-25.690001,-41.93,1770369790,-0.065973446,-0.448375102,-0.731816555
1.11064896,-0.6462828,8.93067084,-1.75,-25.200001,-38.919998,1770369790,-0.030543262,-0.439822989,-0.67928211
1.30214016,-0.51941988,9.36631332,-2.03,-26.459999,-39.34,1770369790,-0.035430184,-0.461814103,-0.686612528
1.52714232,-0.36622692,9.84743496,-3.71,-23.940001,-39.34,1770369790,-0.064751715,-0.41783184,-0.686612528
1.71863352,-0.299205,10.09876716,-7.21,-23.73,-37.240002,1770369790,-0.125838239,-0.414166631,-0.649960648
1.89815652,-0.30399228,10.35488664,-10.64,-25.059999,-34.790001,1770369790,-0.185703032,-0.437379493,-0.607200064
2.06810496,-0.26090676,10.59425064,-14.84,-26.6,-31.639999,1770369790,-0.259006861,-0.464257581,-0.552222158
2.273958,-0.14601204,10.54877148,-19.25,-32.060001,-28,1770369790,-0.335975881,-0.559552576,-0.488692191
2.453481,-0.05505372,10.1011608,-26.110001,-35.560001,-22.540001,1770369790,-0.455705485,-0.620639099,-0.393397231
2.59470576,-0.1555866,9.65115648,-26.110001,-38.990002,-19.6,1770369790,-0.455705485,-0.68050391,-0.342084533
2.84364432,-0.36383328,9.45727164,-27.299999,-44.59,-13.3,1770369790,-0.476474868,-0.778242313,-0.232128791
3.01838004,-0.55771812,9.45727164,-24.85,-43.259998,-8.33,1770369790,-0.433714319,-0.7550294,-0.145385927
3.19072212,-0.72766656,9.45009072,-24.290001,-40.529999,-4.83,1770369790,-0.423940493,-0.707381928,-0.084299403
3.291255,-0.84016764,9.5027508,-19.459999,-33.599998,-3.85,1770369790,-0.339641055,-0.586430594,-0.067195176
3.30561684,-0.94788144,9.634401,-15.89,-24.85,-1.47,1770369790,-0.277332818,-0.433714319,-0.02565634
3.13088112,-0.92633868,9.7660512,-11.62,-14.84,-2.8,1770369790,-0.202807259,-0.259006861,-0.048869219
2.83167612,-0.9215514,9.9575424,-7.42,-5.88,-1.68,1770369790,-0.12950343,-0.10262536,-0.029321531
2.49896016,-0.84256128,10.07483076,-5.67,2.24,-5.46,1770369790,-0.098960169,0.039095375,-0.095294977
2.1423078,-0.78511392,10.25196012,-4.9,5.74,-4.2,1770369790,-0.085521133,0.100181899,-0.073303829
1.9029438,-0.66303828,10.4961114,-3.78,6.86,-9.03,1770369790,-0.065973446,0.119729587,-0.157603231
1.735389,-0.62713368,10.83840192,-5.11,4.34,-9.03,1770369790,-0.089186325,0.07574729,-0.157603231
1.72581444,-0.58404816,11.08734048,-6.3,0.63,-9.45,1770369790,-0.109955743,0.010995574,-0.164933614
1.8191664,-0.5505372,11.35542816,-6.58,-6.44,-11.62,1770369790,-0.114842665,-0.112399204,-0.202807259
1.974753,-0.46915344,11.51101476,-10.01,-12.53,-12.46,1770369790,-0.174707458,-0.218689755,-0.217468025
2.32422444,-0.32792868,11.47511016,-9.59,-19.040001,-13.37,1770369790,-0.167377075,-0.332310707,-0.233350521
2.75747328,-0.21303396,11.30037444,-12.67,-25.41,-10.5,1770369790,-0.221133216,-0.443488163,-0.183259571
3.16199844,-0.10532016,11.07537228,-12.32,-30.940001,-11.97,1770369790,-0.215024564,-0.540004888,-0.208915911
3.55934268,0.06941556,10.72829448,-15.47,-30.799999,-5.67,1770369790,-0.270002435,-0.537561392,-0.098960169
3.8776968,0.16516116,9.99105336,-15.75,-30.799999,-8.68,1770369790,-0.274889357,-0.537561392,-0.151494579
4.16972088,0.1316502,9.21312036,-15.19,-28.700001,-3.64,1770369790,-0.265115513,-0.500909513,-0.063529985
4.52158596,0.06462828,8.78226516,-14.84,-25.690001,-1.05,1770369790,-0.259006861,-0.448375102,-0.018325957
4.88781288,-0.0119682,8.73439236,-12.81,-23.52,2.31,1770369790,-0.223576677,-0.41050144,0.040317106
5.13196416,-0.06462828,9.02881008,-16.799999,-19.18,7.63,1770369790,-0.293215297,-0.334754151,0.133168622
5.38090272,0.00718092,9.634401,-20.299999,-9.17,7.84,1770369790,-0.354301821,-0.160046692,0.136833813
5.43595644,0.1316502,10.20169368,-24.639999,4.2,11.2,1770369790,-0.43004911,0.073303829,0.195476876
5.17983696,0.27287496,10.30940748,-30.870001,21.49,8.96,1770369790,-0.538783158,0.375071256,0.156381501
4.68435348,0.38776968,10.16339544,-35.419998,39.549999,5.18,1770369790,-0.618195586,0.690277702,0.090408055
3.97583604,0.4069188,10.07961804,-40.669998,55.369999,2.8,1770369790,-0.709825372,0.966388789,0.048869219
3.16678572,0.3351096,10.1011608,-48.09,72.239998,-1.61,1770369790,-0.839328837,1.260825817,-0.028099801
2.49417288,0.02154276,9.8857332,-50.330002,81.760002,-6.93,1770369790,-0.878424247,1.426981231,-0.120951317
1.84549644,-0.5146326,9.41179248,-55.299999,86.099998,-7.7,1770369790,-0.965167059,1.502728451,-0.134390352
1.32368292,-1.21357548,8.93785176,-54.389999,87.43,-8.47,1770369790,-0.949284563,1.525941365,-0.147829388
0.9095832,-1.91012472,8.68651956,-51.59,79.870003,-6.65,1770369790,-0.900415361,1.393994526,-0.116064395
0.59841,-2.49896016,8.8085952,-51.169998,71.050003,-8.33,1770369790,-0.893084943,1.240056486,-0.145385927
0.35186508,-2.9082726,9.1317366,-47.32,59.57,-5.53,1770369790,-0.825889802,1.039692635,-0.096516708
0.1436184,-3.2194458,9.48120804,-47.389999,46.970001,-2.52,1770369790,-0.827111515,0.819781167,-0.043982297
-0.05505372,-3.45162888,9.63918828,-44.099998,35.209999,0.84,1770369790,-0.769690165,0.614530412,0.014660766
-0.14122476,-3.68381196,9.68706108,-43.540001,21.91,0.98,1770369790,-0.759916374,0.382401639,0.017104227
-0.17234208,-3.8417922,9.5506236,-43.610001,10.99,5.39,1770369790,-0.761138104,0.191811685,0.094073247
-0.08856468,-3.99977244,9.48599532,-41.369999,2.87,1.12,1770369790,-0.722042694,0.05009095,0.019547688
0.14122476,-4.05243252,9.31604688,-41.860001,-5.32,2.45,1770369790,-0.730594842,-0.092851516,0.042760567
0.4308552,-3.99977244,9.14609844,-38.43,-7.84,-3.64,1770369790,-0.670730032,-0.136833813,-0.063529985
0.7659648,-3.88009044,9.02641644,-38.080002,-10.29,-1.61,1770369790,-0.664621414,-0.17959438,-0.028099801
1.077138,-3.65748192,8.94503268,-35.07,-9.52,-7.14,1770369790,-0.612086969,-0.166155345,-0.124616509
1.41942852,-3.43966068,8.66737044,-34.439999,-5.18,-11.13,1770369790,-0.601091377,-0.090408055,-0.194255146
1.77847452,-3.31758504,8.50460292,-31.219999,-1.33,-12.95,1770369790,-0.544891775,-0.023212879,-0.226020138
2.14709508,-3.16678572,8.66737044,-26.530001,5.18,-15.12,1770369790,-0.463035868,0.090408055,-0.263893783
2.36730996,-2.82928248,8.99769276,-21.209999,11.83,-15.61,1770369790,-0.370184317,0.206472451,-0.272445896
2.39842728,-2.43911916,9.32562144,-21.91,20.93,-18.48,1770369790,-0.382401639,0.365297412,-0.322536846
2.29071348,-2.19257424,9.63200736,-23.59,28.629999,-21.98,1770369790,-0.411723171,0.499687747,-0.38362337
2.00347668,-2.18299968,9.75647664,-27.16,36.540001,-23.870001,1770369790,-0.474031425,0.637743326,-0.41661011
1.6396434,-2.45108736,9.76365756,-28.49,43.75,-25.200001,1770369790,-0.497244304,0.763581548,-0.439822989
1.23751188,-2.8603998,9.694242,-27.860001,45.779999,-27.09,1770369790,-0.486248747,0.799011714,-0.472809694
0.81623124,-3.26253132,9.4907826,-28.07,47.18,-30.450001,1770369790,-0.489913921,0.823446341,-0.531452775
0.41409972,-3.59764092,9.31844052,-25.76,45.080002,-29.82,1770369790,-0.449596815,0.786794462,-0.520457183
-0.01436184,-3.76519572,9.11737476,-24.219999,41.299999,-34.299999,1770369790,-0.422718727,0.720820964,-0.598647916
-0.33032232,-3.79152576,8.99290548,-20.440001,36.75,-34.369999,1770369790,-0.356745317,0.6414085,-0.599869646
-0.63670824,-3.65987556,9.01923552,-20.23,30.870001,-31.57,1770369790,-0.353080108,0.538783158,-0.551000445
-0.97181784,-3.351096,9.19397124,-22.540001,26.25,-33.18,1770369790,-0.393397231,0.458148929,-0.579100246
-1.43139672,-2.9441772,9.46923984,-23.24,22.82,-32.41,1770369790,-0.405614518,0.398284135,-0.565661211
-1.97954028,-2.5851312,9.57216636,-28.77,19.32,-32.060001,1770369790,-0.502131226,0.337197611,-0.559552576
-2.5372584,-2.3816718,9.47402712,-29.540001,17.15,-32.48,1770369790,-0.515570278,0.299323967,-0.566882941
-3.10694472,-2.24284068,9.24423768,-30.17,14.28,-35.91,1770369790,-0.526565835,0.249233017,-0.626747734
-3.45402252,-2.44869372,8.92109628,-31.219999,6.72,-38.779999,1770369790,-0.544891775,0.117286126,-0.676838666
-3.69338652,-2.64018492,8.55247572,-24.639999,-4.41,-43.049999,1770369790,-0.43004911,-0.07696902,-0.751364226
-3.71253564,-2.86997436,8.82295704,-20.299999,-18.41,-44.169998,1770369790,-0.354301821,-0.321315115,-0.770911896
-3.54737448,-3.00880548,9.47163348,-10.57,-31.08,-51.869999,1770369790,-0.184481302,-0.542448332,-0.905302266
-3.10933836,-2.99205,9.42854796,-3.78,-45.220001,-50.259998,1770369790,-0.065973446,-0.789237905,-0.877202447
-2.453481,-2.87954892,9.155673,0.35,-58.66,-58.240002,1770369790,0.006108652,-1.023810139,-1.016479791
-1.58219604,-2.5970994,9.34237692,4.41,-71.120003,-56.560001,1770369790,0.07696902,-1.241278216,-0.987158242
-0.53617536,-2.26917072,10.04371344,7,-82.599998,-57.540001,1770369790,0.122173048,-1.441641927,-1.004262469
0.58165452,-1.80480456,10.97723304,9.87,-90.510002,-56.77,1770369790,0.172263997,-1.579697541,-0.990823416
1.66118616,-1.37394936,11.728836,9.52,-95.129997,-51.73,1770369790,0.166155345,-1.660331665,-0.902858822
2.63539764,-1.12261716,12.00171096,4.69,-96.739998,-52.360001,1770369790,0.081855942,-1.688431483,-0.913854414
3.45402252,-1.09868076,11.81740068,-2.38,-97.510002,-42.77,1770369790,-0.041538836,-1.701870589,-0.746477321
4.16972088,-1.19921364,11.54691936,-5.25,-94.080002,-39.34,1770369790,-0.091629786,-1.642005795,-0.686612528
4.88063196,-1.41703488,11.41526916,-7.91,-91.07,-33.599998,1770369790,-0.138055544,-1.58947135,-0.586430594
5.4694674,-1.6037388,11.1663306,-10.99,-83.580002,-27.09,1770369790,-0.191811685,-1.458746224,-0.472809694
5.87159892,-1.84789008,10.6756344,-13.79,-74.690002,-23.309999,1770369790,-0.240680904,-1.303586453,-0.406836231
5.98170636,-2.06571132,10.08440532,-17.08,-62.509998,-19.67,1770369790,-0.298102236,-1.091005281,-0.343306264
6.19234668,-2.34337356,9.454878,-19.67,-47.740002,-15.89,1770369790,-0.343306264,-0.83322022,-0.277332818
6.18037848,-2.50374744,9.02162916,-20.09,-29.049999,-15.82,1770369790,-0.350636647,-0.50701813,-0.276111088
5.99846184,-2.43672552,8.78705244,-21.07,-12.32,-13.02,1770369790,-0.367740873,-0.215024564,-0.227241869
5.58196848,-2.30268168,8.69848776,-24.639999,5.67,-14.14,1770369790,-0.43004911,0.098960169,-0.246789556
4.99552668,-2.21890428,8.64822132,-26.879999,18.83,-12.18,1770369790,-0.469144485,0.328645498,-0.212581103
4.30137108,-2.26917072,8.61231672,-28.98,28.49,-12.25,1770369790,-0.505796417,0.497244304,-0.213802833
3.58327908,-2.43193824,8.56683756,-30.870001,35.700001,-11.97,1770369790,-0.538783158,0.62308256,-0.208915911
2.9441772,-2.50374744,8.59795488,-29.889999,36.119999,-10.92,1770369790,-0.521678896,0.630412908,-0.190589954
2.34337356,-2.50614108,8.63625312,-29.33,33.040001,-11.69,1770369790,-0.51190507,0.576656802,-0.20402899
1.95799752,-2.64736584,8.72721144,-27.58,28.209999,-12.53,1770369790,-0.481361808,0.492357365,-0.218689755
1.49363136,-2.56598208,8.7726906,-24.01,19.459999,-13.72,1770369790,-0.419053553,0.339641055,-0.239459173
1.34522568,-2.52050292,8.83971252,-21,10.08,-15.54,1770369790,-0.366519143,0.175929189,-0.271224166
1.3404384,-2.52289656,9.04556556,-16.66,-0.98,-14.63,1770369790,-0.290771853,-0.017104227,-0.25534167
1.555866,-2.7407178,9.30647232,-15.61,-8.4,-18.48,1770369790,-0.272445896,-0.146607657,-0.322536846
1.91012472,-3.20987124,9.28492956,-10.43,-14.49,-18.48,1770369790,-0.182037841,-0.252898209,-0.322536846
2.26438344,-3.66945012,9.04317192,-9.87,-20.51,-21.84,1770369790,-0.172263997,-0.35796703,-0.381179909
2.66651496,-3.97583604,8.63864676,-3.22,-21.629999,-24.92,1770369790,-0.056199602,-0.3775147,-0.43493605
3.11651928,-4.11227352,8.3657718,2.1,-21.49,-23.17,1770369790,0.036651914,-0.375071256,-0.404392788
3.52583172,-4.21520004,8.30353716,7,-20.02,-26.32,1770369790,0.122173048,-0.349414916,-0.459370659
3.84897312,-4.2008382,8.617104,11.97,-13.3,-26.110001,1770369790,0.208915911,-0.232128791,-0.455705485
4.13620992,-4.2367428,8.8684362,14,-6.86,-24.85,1770369790,0.244346095,-0.119729587,-0.433714319
4.19605092,-4.23195552,9.03359736,17.01,2.45,-26.74,1770369790,0.296880506,0.042760567,-0.466701042
4.17450816,-4.25349828,9.18200304,20.51,10.85,-25.41,1770369790,0.35796703,0.189368224,-0.443488163
4.12184808,-4.30376472,9.36152604,21.209999,19.809999,-25.76,1770369791,0.370184317,0.345749707,-0.449596815
3.9614742,-4.2846156,9.38785608,22.82,25.48,-31.85,1770369791,0.398284135,0.444709893,-0.555887367
3.72929112,-4.14339084,9.19397124,24.360001,29.120001,-26.389999,1770369791,0.425162223,0.508239896,-0.460592372
3.52583172,-4.00216608,9.03120372,25.9,30.450001,-30.17,1770369791,0.452040276,0.531452775,-0.526565835
3.3989688,-3.86333496,9.0479592,25.41,28.559999,-24.5,1770369791,0.443488163,0.498466017,-0.427605667
3.26013768,-3.60003456,9.06471468,24.08,27.23,-26.6,1770369791,0.420275284,0.475253155,-0.464257581
3.18832848,-3.31040412,9.00487368,24.43,28.35,-21,1770369791,0.426383936,0.494800843,-0.366519143
3.05428464,-3.0758274,8.93067084,22.120001,29.190001,-19.459999,1770369791,0.386066848,0.509461626,-0.339641055
2.96093268,-2.9681136,8.92348992,20.860001,31.219999,-16.870001,1770369791,0.364075699,0.544891775,-0.294437062
2.82210156,-2.8963044,8.89476624,18.200001,33.669998,-12.74,1770369791,0.317649941,0.587652324,-0.222354947
2.67848316,-2.95135812,9.01444824,16.450001,37.240002,-14.63,1770369791,0.287106679,0.649960648,-0.25534167
2.53965204,-3.0279546,9.11258748,16.52,39.900002,-10.36,1770369791,0.288328392,0.696386406,-0.180816111
2.37688452,-3.09258288,9.27296136,17.219999,43.540001,-9.24,1770369791,0.30054568,0.759916374,-0.161268423
2.27874528,-3.1356684,9.44530344,15.33,45.43,-5.11,1770369791,0.267558974,0.792903079,-0.089186325
2.06331768,-3.10933836,9.49556988,15.19,43.75,-4.97,1770369791,0.265115513,0.763581548,-0.086742864
1.85028372,-3.24816948,9.42376068,11.62,41.439999,-2.73,1770369791,0.202807259,0.723264425,-0.047647489
1.58698332,-3.38460696,9.36631332,16.73,36.540001,-1.05,1770369791,0.291993584,0.637743326,-0.018325957
1.39070484,-3.38221332,9.38067516,16.450001,32.970001,0.42,1770369791,0.287106679,0.575435072,0.007330383
1.2805974,-3.34870236,9.53386812,18.83,29.120001,0.28,1770369791,0.328645498,0.508239896,0.004886922
1.20639456,-3.21465852,9.71578476,17.99,26.110001,0.42,1770369791,0.313984732,0.455705485,0.007330383
1.16809632,-3.03034824,9.85461588,15.68,23.940001,1.4,1770369791,0.273667627,0.41783184,0.02443461
1.15612812,-2.96093268,10.01977704,15.19,21.77,3.22,1770369791,0.265115513,0.379958178,0.056199602
1.09149984,-2.89869804,10.10594808,13.16,19.950001,3.01,1770369791,0.22968533,0.348193203,0.05253441
1.02447792,-2.75747328,10.09876716,13.23,17.15,6.16,1770369791,0.23090706,0.299323967,0.107512282
0.99096696,-2.55880116,10.07004348,12.67,15.61,4.55,1770369791,0.221133216,0.272445896,0.079412481
0.9335196,-2.34816084,10.1011608,9.17,13.93,4.48,1770369791,0.160046692,0.243124365,0.07819075
0.897615,-2.10400956,10.08440532,9.31,13.09,3.92,1770369791,0.162490153,0.228463599,0.068416907
0.85213584,-1.94842296,9.96711696,6.23,10.22,5.74,1770369791,0.108734012,0.17837265,0.100181899
0.78032664,-1.9388484,9.8258922,3.36,7.49,4.2,1770369791,0.058643063,0.130725161,0.073303829
0.77075208,-1.93166748,9.634401,1.75,5.18,1.89,1770369791,0.030543262,0.090408055,0.032986723
0.75639024,-1.97714664,9.55541088,-2.52,0.14,4.34,1770369791,-0.043982297,0.002443461,0.07574729
0.84734856,-2.07767952,9.45966528,-0.49,-3.64,0.84,1770369791,-0.008552113,-0.063529985,0.014660766
0.9813924,-2.12555232,9.44769708,-0.07,-7.28,1.4,1770369791,-0.00122173,-0.12705997,0.02443461
1.14415992,-2.13752052,9.3711006,-0.56,-11.27,1.89,1770369791,-0.009773844,-0.196698607,0.032986723
1.32368292,-2.13273324,9.39982428,0.42,-12.18,0.21,1770369791,0.007330383,-0.212581103,0.003665191
1.4840568,-2.09682864,9.39743064,0.7,-14.21,1.96,1770369791,0.012217305,-0.248011287,0.034208453
1.59655788,-2.05613676,9.4429098,4.55,-12.18,3.92,1770369791,0.079412481,-0.212581103,0.068416907
1.7114526,-2.03220036,9.57695364,5.25,-10.64,6.58,1770369791,0.091629786,-0.185703032,0.114842665
1.63724976,-2.03220036,9.73732752,7.56,-9.24,7.98,1770369791,0.131946891,-0.161268423,0.139277274
1.48166316,-2.04177492,9.90009504,9.87,-7,8.05,1770369791,0.172263997,-0.122173048,0.140499005
1.24708644,-2.06571132,10.00780884,7.56,-3.22,9.52,1770369791,0.131946891,-0.056199602,0.166155345
0.98617968,-2.10400956,10.11791628,11.13,-3.78,9.45,1770369791,0.194255146,-0.065973446,0.164933614
0.77075208,-2.23087248,10.21605552,9.87,-3.64,10.43,1770369791,0.172263997,-0.063529985,0.182037841
0.52899444,-2.40082092,10.28547108,10.01,-5.67,9.73,1770369791,0.174707458,-0.098960169,0.169820536
0.3470778,-2.61864216,10.34531208,10.01,-9.66,5.18,1770369791,0.174707458,-0.168598806,0.090408055
0.239364,-2.752686,10.38361032,7.42,-14.63,5.74,1770369791,0.12950343,-0.25534167,0.100181899
0.24175764,-2.94178356,10.4482386,9.52,-22.190001,0,1770369791,0.166155345,-0.387288578,0
0.299205,-3.02556096,10.352493,9.87,-30.73,2.45,1770369791,0.172263997,-0.536339679,0.042760567
0.42846156,-3.05667828,10.18733184,10.99,-40.529999,1.4,1770369791,0.191811685,-0.707381928,0.02443461
0.73484748,-2.98965636,10.02695796,10.64,-47.950001,-4.13,1770369791,0.185703032,-0.836885394,-0.072082098
1.04362704,-2.90587896,9.88094592,10.57,-55.720001,-2.17,1770369791,0.184481302,-0.972497477,-0.037873645
1.44336492,-2.812527,9.7780194,13.37,-60.830002,-4.06,1770369791,0.233350521,-1.061683819,-0.070860368
1.82156004,-2.63061036,9.7181784,12.88,-61.880001,-2.8,1770369791,0.224798408,-1.080009759,-0.048869219
2.19496788,-2.4654492,9.6224328,15.12,-63.279999,-3.64,1770369791,0.263893783,-1.104444333,-0.063529985
2.44630008,-2.30507532,9.52189992,13.44,-62.09,-3.15,1770369791,0.234572251,-1.083674933,-0.054977871
2.74789872,-2.13512688,9.41179248,13.79,-59.009998,-2.59,1770369791,0.240680904,-1.029918757,-0.045204028
2.95375176,-2.02501944,9.335196,13.86,-57.049999,-3.08,1770369791,0.241902634,-0.995710321,-0.053756141
3.19790304,-1.9029438,9.26578044,14.56,-52.849998,-1.05,1770369791,0.254119939,-0.922406475,-0.018325957
3.37742604,-1.79523,9.28253592,13.86,-49.630001,-3.15,1770369791,0.241902634,-0.866206925,-0.054977871
3.59285364,-1.74496356,9.35195148,13.79,-45.990002,-5.18,1770369791,0.240680904,-0.802676958,-0.090408055
3.71732292,-1.66118616,9.5027508,11.69,-41.580002,-1.05,1770369791,0.20402899,-0.725707938,-0.018325957
3.80349396,-1.6037388,9.5506236,15.12,-37.240002,-1.47,1770369791,0.263893783,-0.649960648,-0.02565634
3.81067488,-1.60134516,9.58892184,14.56,-33.18,-1.05,1770369791,0.254119939,-0.579100246,-0.018325957
3.7819512,-1.6516116,9.53147448,13.44,-29.26,1.89,1770369791,0.234572251,-0.510683339,0.032986723
3.69578016,-1.73778264,9.514719,15.33,-25.969999,0.56,1770369791,0.267558974,-0.453261989,0.009773844
3.60960912,-1.80959184,9.51232536,16.870001,-22.4,3.78,1770369791,0.294437062,-0.390953752,0.065973446
3.51625716,-1.90055016,9.5865282,19.530001,-19.389999,2.73,1770369791,0.34086282,-0.338419325,0.047647489
3.44444796,-1.96517844,9.80434944,21.559999,-18.969999,2.38,1770369791,0.376292969,-0.331088942,0.041538836
3.19072212,-1.91969928,9.96232968,23.309999,-15.54,7.98,1770369791,0.406836231,-0.271224166,0.139277274
2.94896448,-1.99629576,10.03413888,24.639999,-13.3,2.59,1770369791,0.43004911,-0.232128791,0.045204028
2.6689086,-2.04177492,9.99823428,25.76,-12.6,8.19,1770369791,0.449596815,-0.219911486,0.142942466
2.38406544,-2.03938128,9.90248868,25.83,-12.18,4.48,1770369791,0.450818546,-0.212581103,0.07819075
2.15666964,-1.97954028,9.84504132,29.540001,-13.65,4.9,1770369791,0.515570278,-0.238237443,0.085521133
1.92448656,-1.85267736,9.82828584,29.120001,-16.52,3.64,1770369791,0.508239896,-0.288328392,0.063529985
1.80001728,-1.70905896,9.97190424,32.060001,-22.26,0.28,1770369791,0.559552576,-0.388510291,0.004886922
1.75693176,-1.46490768,10.09876716,27.719999,-26.25,0.07,1770369791,0.483805251,-0.458148929,0.00122173
1.78565544,-1.29017196,10.14185268,28.209999,-33.25,-2.52,1770369791,0.492357365,-0.580321976,-0.043982297
1.91012472,-1.14655356,10.11552264,25.620001,-41.369999,-4.41,1770369791,0.447153372,-0.722042694,-0.07696902
2.07528588,-1.0532016,10.053288,24.15,-49.77,-7.56,1770369791,0.421497014,-0.868650369,-0.131946891
2.31943716,-1.01011608,9.93839328,22.120001,-57.75,-13.51,1770369791,0.386066848,-1.007927643,-0.235793982
2.63779128,-0.98378604,9.7181784,19.32,-63.84,-13.65,1770369791,0.337197611,-1.114218194,-0.238237443
3.0040182,-1.02208428,9.4788144,20.440001,-68.040001,-17.92,1770369791,0.356745317,-1.187522041,-0.312763002
3.36785148,-0.97181784,9.30886596,19.389999,-70.699997,-18.690001,1770369791,0.338419325,-1.233947729,-0.326202055
3.74125932,-0.95027508,9.19875852,20.09,-71.959999,-19.25,1770369791,0.350636647,-1.255938912,-0.335975881
4.07876256,-0.90240228,9.0718956,17.57,-71.330002,-21.139999,1770369791,0.30665435,-1.24494339,-0.368962586
4.38275484,-0.85452948,8.93545812,16.73,-67.830002,-20.02,1770369791,0.291993584,-1.183856867,-0.349414916
4.62451248,-0.75160296,8.89476624,17.99,-63.07,-21.35,1770369791,0.313984732,-1.100779159,-0.372627795
4.80882276,-0.66303828,8.796627,15.89,-58.73,-21,1770369791,0.277332818,-1.02503187,-0.366519143
4.96440936,-0.63910188,8.796627,14.35,-54.110001,-20.58,1770369791,0.250454748,-0.944397676,-0.35918876
5.13914508,-0.59841,8.72242416,13.09,-48.650002,-20.370001,1770369791,0.228463599,-0.849102716,-0.355523586
5.20856064,-0.61277184,8.61231672,8.12,-44.799999,-17.780001,1770369791,0.141720735,-0.781907487,-0.310319558
5.22770976,-0.6462828,8.53093296,8.19,-40.25,-18.9,1770369791,0.142942466,-0.702495024,-0.329867229
5.27318892,-0.78032664,8.53811388,6.02,-37.59,-15.75,1770369791,0.105068821,-0.656069266,-0.274889357
5.33302992,-0.8258058,8.4854538,7,-34.790001,-14.77,1770369791,0.122173048,-0.607200064,-0.257785131
5.3497854,-0.83538036,8.40646368,4.97,-32.27,-14.56,1770369791,0.086742864,-0.56321775,-0.254119939
5.36414724,-0.79947576,8.30114352,5.18,-29.68,-14.42,1770369791,0.090408055,-0.518013722,-0.251676478
5.4215946,-0.75878388,8.31311172,4.97,-27.02,-13.51,1770369791,0.086742864,-0.471587964,-0.235793982
5.47904196,-0.70373016,8.42082552,4.76,-25.27,-13.93,1770369791,0.083077672,-0.441044702,-0.243124365
5.5412766,-0.68697468,8.62428492,5.53,-21.49,-14.28,1770369791,0.096516708,-0.375071256,-0.249233017
5.59633032,-0.63670824,8.72242416,3.57,-18.620001,-12.6,1770369791,0.062308254,-0.324980324,-0.219911486
5.60590488,-0.5864418,8.80141428,2.31,-15.33,-15.33,1770369791,0.040317106,-0.267558974,-0.267558974
5.59154304,-0.56011176,8.78944608,2.66,-12.11,-13.37,1770369791,0.046425758,-0.211359372,-0.233350521
5.56760664,-0.56011176,8.86125528,1.47,-9.73,-14.98,1770369791,0.02565634,-0.169820536,-0.261450322
5.51255292,-0.5146326,8.90194716,3.01,-4.9,-11.9,1770369791,0.05253441,-0.085521133,-0.207694181
5.42398824,-0.57686724,8.91870264,2.59,-2.1,-16.17,1770369791,0.045204028,-0.036651914,-0.28221974
5.29951896,-0.68458104,8.77029696,1.54,-0.35,-14.77,1770369791,0.02687807,-0.006108652,-0.257785131
5.23489068,-0.77075208,8.70327504,0.7,3.64,-17.92,1770369791,0.012217305,0.063529985,-0.312763002
5.23728432,-0.82341216,8.65540224,2.1,5.88,-16.309999,1770369791,0.036651914,0.10262536,-0.284663184
5.21574156,-0.84734856,8.71524324,2.66,4.83,-15.75,1770369791,0.046425758,0.084299403,-0.274889357
5.22292248,-0.8018694,8.8325316,1.75,6.72,-13.37,1770369791,0.030543262,0.117286126,-0.233350521
5.2181352,-0.66543192,8.9881182,0.77,6.65,-11.9,1770369791,0.013439035,0.116064395,-0.207694181
5.22531612,-0.54096264,9.06232104,0,8.33,-9.66,1770369791,0,0.145385927,-0.168598806
5.13675144,-0.47154708,9.05274648,-0.98,10.43,-9.94,1770369791,-0.017104227,0.182037841,-0.173485728
5.06733588,-0.4069188,9.00248004,-1.12,9.1,-6.86,1770369791,-0.019547688,0.158824962,-0.119729587
5.00031396,-0.46436616,9.00726732,-1.4,8.96,-6.65,1770369791,-0.02443461,0.156381501,-0.116064395
4.93807932,-0.51702624,8.99051184,-4.69,11.55,-3.64,1770369791,-0.081855942,0.201585529,-0.063529985
4.83994008,-0.62474004,8.91870264,-1.47,12.11,-4.76,1770369791,-0.02565634,0.211359372,-0.083077672
4.72025808,-0.71091108,8.79423336,-0.14,11.76,-1.47,1770369791,-0.002443461,0.20525072,-0.02565634
4.6436616,-0.7899012,8.78705244,0.91,13.86,-0.35,1770369791,0.015882496,0.241902634,-0.006108652
4.59339516,-0.8736786,8.96657544,1.47,13.72,-4.13,1770369791,0.02565634,0.239459173,-0.072082098
4.55270328,-0.87607224,9.11498112,-1.33,14.07,-1.68,1770369791,-0.023212879,0.245567826,-0.029321531
4.45935132,-0.93112596,9.2035458,2.8,13.79,-3.71,1770369791,0.048869219,0.240680904,-0.064751715
4.37078664,-0.96703056,9.215514,0.35,14.14,-0.14,1770369791,0.006108652,0.246789556,-0.002443461
4.29179652,-1.02687156,9.26817408,2.8,13.65,-3.29,1770369791,0.048869219,0.238237443,-0.057421332
4.2128064,-1.05559524,9.32801508,1.54,14.49,-1.12,1770369791,0.02687807,0.252898209,-0.019547688
4.16014632,-0.95506236,9.40461156,1.75,12.81,-3.15,1770369792,0.030543262,0.223576677,-0.054977871
4.10987988,-0.92394504,9.48599532,2.66,10.08,-0.14,1770369792,0.046425758,0.175929189,-0.002443461
4.00695336,-0.89043408,9.53626176,1.75,9.87,-2.17,1770369792,0.030543262,0.172263997,-0.037873645
3.88248408,-0.91197684,9.5984964,3.29,9.1,-1.4,1770369792,0.057421332,0.158824962,-0.02443461
3.80349396,-0.92873232,9.59370912,3.08,7,-1.82,1770369792,0.053756141,0.122173048,-0.031764992
3.74125932,-0.97899876,9.60807096,1.54,4.27,-3.01,1770369792,0.02687807,0.074525559,-0.05253441
3.64551372,-1.01490336,9.58892184,2.45,2.03,-5.32,1770369792,0.042760567,0.035430184,-0.092851516
3.63354552,-1.06277616,9.50514444,2.8,-0.56,-5.18,1770369792,0.048869219,-0.009773844,-0.090408055
3.68859924,-1.06995708,9.47163348,2.1,-3.64,-5.53,1770369792,0.036651914,-0.063529985,-0.096516708
3.8417922,-1.0292652,9.59370912,3.15,-5.88,-9.24,1770369792,0.054977871,-0.10262536,-0.161268423
3.9973788,-0.94788144,9.66791196,-0.42,-7.77,-7.07,1770369792,-0.007330383,-0.135612083,-0.123394778
4.13620992,-0.87846588,9.62722008,0.42,-9.66,-9.45,1770369792,0.007330383,-0.168598806,-0.164933614
4.22956188,-0.8497422,9.49317624,1.96,-9.52,-4.76,1770369792,0.034208453,-0.166155345,-0.083077672
4.33966932,-0.84256128,9.40221792,0.21,-9.66,-6.16,1770369792,0.003665191,-0.168598806,-0.107512282
4.44259584,-0.85452948,9.30407868,-0.35,-10.01,-7.28,1770369792,-0.006108652,-0.174707458,-0.12705997
4.55270328,-0.85931676,9.2035458,-2.24,-9.24,-5.95,1770369792,-0.039095375,-0.161268423,-0.10384709
4.607757,-0.81144396,9.17242848,-2.03,-9.1,-9.73,1770369792,-0.035430184,-0.158824962,-0.169820536
4.66281072,-0.85213584,9.17003484,-2.66,-7.84,-6.79,1770369792,-0.046425758,-0.136833813,-0.118507856
4.68674712,-0.86649768,9.06710832,-2.8,-7,-6.09,1770369792,-0.048869219,-0.122173048,-0.106290551
4.68195984,-0.8856468,9.04077828,-0.7,-5.53,-7.98,1770369792,-0.012217305,-0.096516708,-0.139277274
4.66520436,-0.9215514,9.02881008,-3.01,-3.85,-8.33,1770369792,-0.05253441,-0.067195176,-0.145385927
4.63887432,-0.90000864,9.0240228,-1.12,-5.04,-7.35,1770369792,-0.019547688,-0.087964594,-0.1282817
4.61493792,-0.91437048,9.0000864,-3.15,-3.64,-5.6,1770369792,-0.054977871,-0.063529985,-0.097738438
4.59100152,-0.85692312,8.95700088,-1.89,-4.2,-4.83,1770369792,-0.032986723,-0.073303829,-0.084299403
4.61015064,-0.77553936,8.93785176,-2.03,-4.2,-7,1770369792,-0.035430184,-0.073303829,-0.122173048
4.59339516,-0.73724112,8.91870264,-3.99,-4.2,-5.88,1770369792,-0.069638637,-0.073303829,-0.10262536
4.56227784,-0.76117752,8.87561712,-3.22,-4.34,-6.09,1770369792,-0.056199602,-0.07574729,-0.106290551
4.61015064,-0.7420284,8.8804044,-1.33,-2.87,-5.88,1770369792,-0.023212879,-0.05009095,-0.10262536
4.61493792,-0.72048564,8.91870264,-3.36,-3.08,-5.95,1770369792,-0.058643063,-0.053756141,-0.10384709
4.58621424,-0.7061238,8.91391536,-1.75,-0.77,-7.63,1770369792,-0.030543262,-0.013439035,-0.133168622
4.5957888,-0.73245384,8.8923726,-4.9,0,-6.3,1770369792,-0.085521133,0,-0.109955743
4.61254428,-0.7659648,8.8325316,-1.68,-1.05,-9.1,1770369792,-0.029321531,-0.018325957,-0.158824962
4.58142696,-0.77553936,8.81098884,-2.59,0.56,-6.65,1770369792,-0.045204028,0.009773844,-0.116064395
4.57903332,-0.73484748,8.8085952,-0.91,0.56,-7.21,1770369792,-0.015882496,0.009773844,-0.125838239
4.5838206,-0.69654924,8.94981996,0.07,0.21,-6.86,1770369792,0.00122173,0.003665191,-0.119729587
4.58621424,-0.658251,9.05514012,-1.89,0.77,-6.44,1770369792,-0.032986723,0.013439035,-0.112399204
4.57663968,-0.64149552,9.10061928,-2.24,0.35,-6.44,1770369792,-0.039095375,0.006108652,-0.112399204
4.54552236,-0.6343146,9.13891752,-1.89,-0.91,-5.39,1770369792,-0.032986723,-0.015882496,-0.094073247
4.52637324,-0.658251,9.13891752,-1.96,-0.14,-4.62,1770369792,-0.034208453,-0.002443461,-0.080634211
4.52876688,-0.70133652,9.08147016,-0.77,-0.49,-5.53,1770369792,-0.013439035,-0.008552113,-0.096516708
4.51679868,-0.77314572,9.08147016,-3.99,0.35,-5.32,1770369792,-0.069638637,0.006108652,-0.092851516
4.5239796,-0.78750756,9.11019384,0.35,-0.14,-5.32,1770369792,0.006108652,-0.002443461,-0.092851516
4.54552236,-0.78272028,9.14609844,-1.75,0.42,-6.58,1770369792,-0.030543262,0.007330383,-0.114842665
4.56706512,-0.7539966,9.19397124,0.7,0.28,-5.32,1770369792,0.012217305,0.004886922,-0.092851516
4.5359478,-0.71330472,9.16285392,0,0.35,-7.21,1770369792,0,0.006108652,-0.125838239
4.54073508,-0.67740012,9.17482212,-1.89,-0.14,-2.03,1770369792,-0.032986723,-0.002443461,-0.035430184
4.53834144,-0.6343146,9.18439668,1.12,-0.7,-5.53,1770369792,0.019547688,-0.012217305,-0.096516708
4.57903332,-0.57686724,9.18918396,-1.33,-1.12,-3.36,1770369792,-0.023212879,-0.019547688,-0.058643063
4.60536336,-0.57207996,9.16524756,-1.26,-1.68,-4.13,1770369792,-0.021991149,-0.029321531,-0.072082098
4.59339516,-0.5744736,9.14849208,-0.21,-1.82,-4.55,1770369792,-0.003665191,-0.031764992,-0.079412481
4.61015064,-0.61516548,9.09343836,-2.24,-0.98,-2.38,1770369792,-0.039095375,-0.017104227,-0.041538836
4.57663968,-0.61516548,9.04556556,1.12,-1.89,-4.62,1770369792,0.019547688,-0.032986723,-0.080634211
4.56706512,-0.60798456,9.07907652,0.98,-0.21,-4.97,1770369792,0.017104227,-0.003665191,-0.086742864
4.61015064,-0.60080364,9.12455568,0.98,0.21,-1.96,1770369792,0.017104227,0.003665191,-0.034208453
4.58860788,-0.60319728,9.215514,2.8,-0.91,-3.85,1770369792,0.048869219,-0.015882496,-0.067195176
4.6316934,-0.60319728,9.19636488,0.21,-0.56,-1.05,1770369792,0.003665191,-0.009773844,-0.018325957
4.59818244,-0.52899444,9.24663132,1.54,-1.12,-2.03,1770369792,0.02687807,-0.019547688,-0.035430184
4.59100152,-0.48112164,9.28253592,2.03,-1.68,-1.61,1770369792,0.035430184,-0.029321531,-0.028099801
4.53355416,-0.4428234,9.26578044,1.54,-1.75,-0.56,1770369792,0.02687807,-0.030543262,-0.009773844
4.50961776,-0.47154708,9.1437048,-0.07,-1.68,-2.8,1770369792,-0.00122173,-0.029321531,-0.048869219
4.4641386,-0.54574992,9.06710832,-1.75,-2.24,-0.91,1770369792,-0.030543262,-0.039095375,-0.015882496
4.44259584,-0.52181352,9.03120372,0.21,-1.89,-0.98,1770369792,0.003665191,-0.032986723,-0.017104227
4.42105308,-0.5744736,9.02881008,0.91,-2.66,-2.45,1770369792,0.015882496,-0.046425758,-0.042760567
4.4402022,-0.59841,9.0479592,2.03,-1.89,0.77,1770369792,0.035430184,-0.032986723,0.013439035
4.44977676,-0.56968632,9.05035284,0.49,-3.22,-1.12,1770369792,0.008552113,-0.056199602,-0.019547688
4.4641386,-0.55532448,9.05035284,0.07,-3.85,-0.21,1770369792,0.00122173,-0.067195176,-0.003665191
4.44498948,-0.52899444,9.06232104,0.63,-4.48,-1.96,1770369792,0.010995574,-0.07819075,-0.034208453
4.46174496,-0.50745168,9.07428924,-0.21,-4.13,-0.84,1770369792,-0.003665191,-0.072082098,-0.014660766
4.46174496,-0.48112164,9.05514012,0.42,-4.13,0.21,1770369792,0.007330383,-0.072082098,0.003665191
4.5120114,-0.4428234,9.03359736,3.01,-5.53,-1.61,1770369792,0.05253441,-0.096516708,-0.028099801
4.56467148,-0.46197252,9.05753376,-0.21,-6.44,-1.4,1770369792,-0.003665191,-0.112399204,-0.02443461
4.58860788,-0.418887,9.0479592,1.33,-5.74,-4.06,1770369792,0.023212879,-0.100181899,-0.070860368
4.63887432,-0.38776968,9.0240228,0.35,-4.9,0.42,1770369792,0.006108652,-0.085521133,0.007330383
4.63408704,-0.40452516,8.97375636,2.31,-5.39,-1.4,1770369792,0.040317106,-0.094073247,-0.02443461
4.66281072,-0.3829824,8.95939452,1.05,-6.3,-0.14,1770369792,0.018325957,-0.109955743,-0.002443461
4.71786444,-0.36862056,8.98333092,-0.56,-3.99,-3.08,1770369792,-0.009773844,-0.069638637,-0.053756141
4.7154708,-0.38537604,8.98093728,1.75,-5.53,0.35,1770369792,0.030543262,-0.096516708,0.006108652
4.74180084,-0.41170608,9.02641644,1.19,-4.76,-3.36,1770369792,0.020769418,-0.083077672,-0.058643063
4.78967364,-0.3949506,9.035991,0.35,-3.85,0.21,1770369792,0.006108652,-0.067195176,0.003665191
4.77770544,-0.39973788,9.05753376,0.14,-3.22,-0.56,1770369792,0.002443461,-0.056199602,-0.009773844
4.76094996,-0.4069188,9.05753376,1.12,-2.31,-0.49,1770369792,0.019547688,-0.040317106,-0.008552113
4.74419448,-0.4069188,9.0599274,1.12,-2.03,0.42,1770369792,0.019547688,-0.035430184,0.007330383
4.7513754,-0.41649336,9.07668288,1.33,-1.33,-0.49,1770369792,0.023212879,-0.023212879,-0.008552113
4.7154708,-0.39973788,9.1078002,2.03,-1.54,0.77,1770369792,0.035430184,-0.02687807,0.013439035
4.74898176,-0.40931244,9.12455568,0.42,-2.1,-1.26,1770369792,0.007330383,-0.036651914,-0.021991149
4.76094996,-0.40931244,9.10540656,-0.21,-1.68,0.42,1770369792,-0.003665191,-0.029321531,0.007330383
4.73461992,-0.38537604,9.07428924,0.35,0.35,-1.26,1770369792,0.006108652,0.006108652,-0.021991149
4.74419448,-0.38058876,9.06710832,0.35,-0.49,-0.42,1770369792,0.006108652,-0.008552113,-0.007330383
4.76813088,-0.32553504,9.07428924,-0.42,0.7,0.42,1770369792,-0.007330383,0.012217305,0.007330383
4.74180084,-0.30399228,9.17482212,-1.82,0.91,-2.17,1770369792,-0.031764992,0.015882496,-0.037873645
4.72983264,-0.36143964,9.14131116,-2.24,1.19,-1.26,1770369792,-0.039095375,0.020769418,-0.021991149
4.727439,-0.33750324,9.13652388,-1.54,1.96,0,1770369792,-0.02687807,0.034208453,0
4.77052452,-0.36862056,9.15806664,-1.19,1.75,-0.21,1770369792,-0.020769418,0.030543262,-0.003665191
4.67238528,-0.36143964,9.11258748,0.21,3.08,2.45,1770369792,0.003665191,0.053756141,0.042760567
4.66041708,-0.40931244,9.11498112,-0.35,2.17,0.07,1770369792,-0.006108652,0.037873645,0.00122173
4.65084252,-0.47394072,9.08625744,-2.24,1.54,-1.47,1770369792,-0.039095375,0.02687807,-0.02565634
4.6316934,-0.48112164,9.06950196,-0.63,2.31,-0.14,1770369792,-0.010995574,0.040317106,-0.002443461
4.62451248,-0.5266008,9.09822564,-0.7,2.52,-0.14,1770369792,-0.012217305,0.043982297,-0.002443461
4.6556298,-0.57926088,9.06471468,0.7,1.54,0.56,1770369792,0.012217305,0.02687807,0.009773844
4.62929976,-0.56011176,9.06950196,-0.77,1.19,-1.68,1770369792,-0.013439035,0.020769418,-0.029321531
4.64605524,-0.56729268,9.11498112,0.21,3.22,-0.14,1770369792,0.003665191,0.056199602,-0.002443461
4.65323616,-0.56489904,9.17721576,1.12,2.1,0.77,1770369792,0.019547688,0.036651914,0.013439035
4.59818244,-0.538569,9.18679032,-0.98,2.87,-1.68,1770369792,-0.017104227,0.05009095,-0.029321531
4.51440504,-0.59601636,9.12934296,-1.26,3.15,2.1,1770369792,-0.021991149,0.054977871,0.036651914
4.46174496,-0.65585736,9.0718956,-0.21,3.57,-2.94,1770369792,-0.003665191,0.062308254,-0.05131268
4.38993576,-0.64388916,9.035991,-0.21,3.08,-0.91,1770369792,-0.003665191,0.053756141,-0.015882496
4.41387216,-0.64388916,9.06950196,-0.77,2.45,-1.82,1770369792,-0.013439035,0.042760567,-0.031764992
4.42105308,-0.59601636,9.08865108,-0.21,3.85,-1.82,1770369792,-0.003665191,0.067195176,-0.031764992
4.40190396,-0.59362272,9.05035284,-0.21,2.66,-2.73,1770369792,-0.003665191,0.046425758,-0.047647489
4.37078664,-0.59362272,9.04317192,1.68,2.45,-1.47,1770369792,0.029321531,0.042760567,-0.02565634
4.38754212,-0.59841,9.0479592,-1.75,1.89,3.36,1770369792,-0.030543262,0.032986723,0.058643063
4.3205202,-0.60559092,9.08865108,1.68,0.56,-2.17,1770369792,0.029321531,0.009773844,-0.037873645
4.32530748,-0.5505372,9.08625744,0.56,0.07,2.59,1770369792,0.009773844,0.00122173,0.045204028
4.26786012,-0.57207996,9.11258748,0.35,-1.12,-3.15,1770369792,0.006108652,-0.019547688,-0.054977871
4.2726474,-0.55532448,9.12694932,2.24,-0.56,2.31,1770369792,0.039095375,-0.009773844,0.040317106
4.24631736,-0.50745168,9.09822564,-2.31,0.56,-1.33,1770369792,-0.040317106,0.009773844,-0.023212879
4.27743468,-0.5625054,9.0718956,1.33,-1.89,-2.45,1770369792,0.023212879,-0.032986723,-0.042760567
4.3324884,-0.5744736,9.07668288,0.07,-0.77,-2.59,1770369792,0.00122173,-0.013439035,-0.045204028
4.39951032,-0.57926088,9.09822564,-0.21,-2.66,0,1770369792,-0.003665191,-0.046425758,0
4.4641386,-0.57686724,9.08147016,0.35,-2.59,-2.59,1770369792,0.006108652,-0.045204028,-0.045204028
4.4641386,-0.60559092,9.01444824,-1.68,-1.54,-0.91,1770369792,-0.029321531,-0.02687807,-0.015882496
4.47850044,-0.56489904,9.06471468,1.12,-2.31,-3.5,1770369792,0.019547688,-0.040317106,-0.061086524
4.49046864,-0.538569,9.1317366,-0.98,-2.38,-1.12,1770369792,-0.017104227,-0.041538836,-0.019547688
4.44977676,-0.52181352,9.18918396,0.56,-1.12,-1.26,1770369792,0.009773844,-0.019547688,-0.021991149
4.45935132,-0.53138808,9.20593944,0.91,-2.8,-0.91,1770369792,0.015882496,-0.048869219,-0.015882496
4.42344672,-0.54574992,9.19397124,-0.7,-3.01,-2.94,1770369793,-0.012217305,-0.05253441,-0.05131268
4.46174496,-0.5625054,9.15327936,0.42,-2.87,-3.15,1770369793,0.007330383,-0.05009095,-0.054977871
4.48568136,-0.5864418,9.17482212,1.19,-4.34,-2.94,1770369793,0.020769418,-0.07574729,-0.05131268
4.52158596,-0.58404816,9.1676412,-0.56,-3.15,-1.12,1770369793,-0.009773844,-0.054977871,-0.019547688
4.57424604,-0.62713368,9.16524756,0.21,-3.01,-3.99,1770369793,0.003665191,-0.05253441,-0.069638637
4.5718524,-0.6103782,9.1437048,-2.24,-2.45,-1.33,1770369793,-0.039095375,-0.042760567,-0.023212879
4.57903332,-0.59122908,9.06471468,-0.91,-3.01,-3.36,1770369793,-0.015882496,-0.05253441,-0.058643063
4.62451248,-0.57926088,9.10301292,0.21,-3.92,-2.38,1770369793,0.003665191,-0.068416907,-0.041538836
4.61733156,-0.58165452,9.09343836,-0.56,-3.29,-1.47,1770369793,-0.009773844,-0.057421332,-0.02565634
4.65084252,-0.58165452,9.1078002,0.14,-1.89,-1.26,1770369793,0.002443461,-0.032986723,-0.021991149
4.66999164,-0.60080364,9.11019384,0.14,-1.68,-0.35,1770369793,0.002443461,-0.029321531,-0.006108652
4.66041708,-0.61277184,9.12216204,-0.56,-2.03,-0.91,1770369793,-0.009773844,-0.035430184,-0.015882496
4.6436616,-0.58404816,9.1078002,-1.05,-1.47,-1.12,1770369793,-0.018325957,-0.02565634,-0.019547688
4.57903332,-0.57686724,9.07907652,-0.35,-1.33,-1.82,1770369793,-0.006108652,-0.023212879,-0.031764992
4.61254428,-0.56729268,9.11498112,-0.14,-1.33,-1.82,1770369793,-0.002443461,-0.023212879,-0.031764992
4.56227784,-0.60319728,9.12216204,-1.54,-0.35,-0.91,1770369793,-0.02687807,-0.006108652,-0.015882496
4.55030964,-0.56968632,9.12934296,-0.14,-1.26,-3.01,1770369793,-0.002443461,-0.021991149,-0.05253441
4.53834144,-0.57686724,9.1437048,-0.77,-0.98,-0.56,1770369793,-0.013439035,-0.017104227,-0.009773844
4.53116052,-0.5744736,9.095832,-0.56,-1.33,-3.29,1770369793,-0.009773844,-0.023212879,-0.057421332
4.51440504,-0.57686724,9.0479592,0,-2.1,-2.94,1770369793,0,-0.036651914,-0.05131268
4.50961776,-0.58404816,9.08865108,-2.1,-0.77,-2.38,1770369793,-0.036651914,-0.013439035,-0.041538836
4.55270328,-0.57686724,9.04556556,-0.42,-2.45,-2.59,1770369793,-0.007330383,-0.042760567,-0.045204028
4.55270328,-0.58883544,9.05274648,-1.12,-1.75,-2.38,1770369793,-0.019547688,-0.030543262,-0.041538836
4.59339516,-0.60559092,9.08147016,-0.21,-1.89,-1.4,1770369793,-0.003665191,-0.032986723,-0.02443461
4.65802344,-0.6103782,9.1197684,-0.35,-1.54,-1.89,1770369793,-0.006108652,-0.02687807,-0.032986723
4.64605524,-0.56489904,9.14849208,-0.35,-0.21,-0.49,1770369793,-0.006108652,-0.003665191,-0.008552113
4.63648068,-0.57686724,9.11737476,-0.21,0.07,-2.52,1770369793,-0.003665191,0.00122173,-0.043982297
4.6197252,-0.57926088,9.095832,-0.98,-0.35,-0.14,1770369793,-0.017104227,-0.006108652,-0.002443461
4.58142696,-0.56729268,9.03838464,0.56,0.77,-4.2,1770369793,0.009773844,0.013439035,-0.073303829
4.55270328,-0.54335628,9.02641644,-0.77,-0.91,-0.84,1770369793,-0.013439035,-0.015882496,-0.014660766
4.52158596,-0.5744736,9.08147016,-1.33,0,-2.94,1770369793,-0.023212879,0,-0.05131268
4.5359478,-0.53378172,9.04556556,-0.35,-0.35,-2.59,1770369793,-0.006108652,-0.006108652,-0.045204028
4.55270328,-0.55293084,9.10061928,-1.12,-0.07,-2.59,1770369793,-0.019547688,-0.00122173,-0.045204028
4.547916,-0.55771812,9.09104472,-1.75,0.21,-1.26,1770369793,-0.030543262,0.003665191,-0.021991149
4.57424604,-0.57926088,9.07428924,0.91,-1.54,-0.63,1770369793,0.015882496,-0.02687807,-0.010995574
4.53834144,-0.6103782,9.10301292,-3.36,-0.14,-3.29,1770369793,-0.058643063,-0.002443461,-0.057421332
4.5838206,-0.61277184,9.12694932,-0.35,0.56,-2.03,1770369793,-0.006108652,0.009773844,-0.035430184
4.55270328,-0.62713368,9.1437048,0.21,-0.98,-1.61,1770369793,0.003665191,-0.017104227,-0.028099801
4.57903332,-0.6223464,9.11498112,-0.77,-1.33,-1.33,1770369793,-0.013439035,-0.023212879,-0.023212879
4.54552236,-0.65585736,9.0599274,-0.07,-1.82,-0.77,1770369793,-0.00122173,-0.031764992,-0.013439035
4.52876688,-0.66543192,9.03838464,-1.12,-0.98,-1.96,1770369793,-0.019547688,-0.017104227,-0.034208453
4.55509692,-0.6702192,9.07907652,0.35,-1.12,-0.49,1770369793,0.006108652,-0.019547688,-0.008552113
4.53834144,-0.59841,9.06950196,0,-0.56,0.07,1770369793,0,-0.009773844,0.00122173
4.54552236,-0.57686724,9.08147016,0.77,0.14,-2.73,1770369793,0.013439035,0.002443461,-0.047647489
4.59100152,-0.5505372,9.05514012,0,-0.77,-2.03,1770369793,0,-0.013439035,-0.035430184
4.5359478,-0.5625054,9.0718956,-0.77,-0.21,-1.96,1770369793,-0.013439035,-0.003665191,-0.034208453
4.59339516,-0.53378172,9.095832,0.91,-1.33,-1.89,1770369793,0.015882496,-0.023212879,-0.032986723
4.5838206,-0.52899444,9.1317366,0.7,-1.19,-0.35,1770369793,0.012217305,-0.020769418,-0.006108652
4.54552236,-0.54335628,9.1197684,0.21,0.42,-0.21,1770369793,0.003665191,0.007330383,-0.003665191
4.51919232,-0.5864418,9.13652388,-0.07,-0.21,-0.56,1770369793,-0.00122173,-0.003665191,-0.009773844
4.49764956,-0.58404816,9.1078002,-2.94,-0.98,-1.05,1770369793,-0.05131268,-0.017104227,-0.018325957
4.50961776,-0.62474004,9.12216204,1.68,-0.07,-2.73,1770369793,0.029321531,-0.00122173,-0.047647489
4.52158596,-0.60559092,9.0718956,-0.77,-0.98,-1.96,1770369793,-0.013439035,-0.017104227,-0.034208453
4.50483048,-0.61516548,9.06710832,1.33,-1.47,0.56,1770369793,0.023212879,-0.02565634,0.009773844
4.5239796,-0.61277184,9.0599274,-0.21,-1.12,-1.82,1770369793,-0.003665191,-0.019547688,-0.031764992
4.53116052,-0.59362272,9.09343836,0.14,-1.89,-0.49,1770369793,0.002443461,-0.032986723,-0.008552113
4.52637324,-0.54335628,9.09822564,1.68,-1.33,-1.68,1770369793,0.029321531,-0.023212879,-0.029321531
4.5359478,-0.52420716,9.08865108,0.56,-1.54,-0.21,1770369793,0.009773844,-0.02687807,-0.003665191
4.52637324,-0.49548348,9.095832,0.77,-1.68,-0.21,1770369793,0.013439035,-0.029321531,-0.003665191
4.51679868,-0.52899444,9.11498112,-0.42,-1.19,0,1770369793,-0.007330383,-0.020769418,0
4.56706512,-0.50984532,9.14849208,-2.03,-1.89,0.35,1770369793,-0.035430184,-0.032986723,0.006108652
4.55749056,-0.52420716,9.16524756,-0.14,-1.75,-2.31,1770369793,-0.002443461,-0.030543262,-0.040317106
4.58621424,-0.54574992,9.17003484,-0.98,-2.24,0.98,1770369793,-0.017104227,-0.039095375,0.017104227
4.54552236,-0.56489904,9.155673,0.14,-2.66,1.26,1770369793,0.002443461,-0.046425758,0.021991149
4.55270328,-0.56011176,9.12694932,0.21,-2.24,-0.7,1770369793,0.003665191,-0.039095375,-0.012217305
4.58142696,-0.56968632,9.1197684,-1.33,-3.43,0.63,1770369793,-0.023212879,-0.059864793,0.010995574
4.58142696,-0.58404816,9.0479592,1.33,-3.01,-2.03,1770369793,0.023212879,-0.05253441,-0.035430184
4.6197252,-0.59362272,9.01684188,-0.14,-2.24,1.12,1770369793,-0.002443461,-0.039095375,0.019547688
4.61733156,-0.61755912,9.0240228,1.33,-2.8,-0.28,1770369793,0.023212879,-0.048869219,-0.004886922
4.66041708,-0.60798456,9.03359736,0.91,-2.1,0.7,1770369793,0.015882496,-0.036651914,0.012217305
4.65323616,-0.58883544,9.0718956,-1.47,-2.52,-0.35,1770369793,-0.02565634,-0.043982297,-0.006108652
4.65084252,-0.5625054,9.08625744,1.33,-1.33,0.21,1770369793,0.023212879,-0.023212879,0.003665191
4.64844888,-0.53617536,9.0479592,2.45,-1.19,0.14,1770369793,0.042760567,-0.020769418,0.002443461
4.60057608,-0.57926088,9.05274648,1.47,-1.68,1.47,1770369793,0.02565634,-0.029321531,0.02565634
4.57663968,-0.5625054,9.04556556,0.35,-1.75,0,1770369793,0.006108652,-0.030543262,0
4.56945876,-0.57686724,9.02162916,-1.33,-1.47,0.91,1770369793,-0.023212879,-0.02565634,0.015882496
4.56227784,-0.58165452,9.02881008,1.89,-1.54,0.35,1770369793,0.032986723,-0.02687807,0.006108652
4.52637324,-0.58883544,9.06950196,-0.07,-1.33,-0.28,1770369793,-0.00122173,-0.023212879,-0.004886922
4.56706512,-0.54814356,9.06950196,1.89,-0.91,1.68,1770369793,0.032986723,-0.015882496,0.029321531
4.54552236,-0.54814356,9.10061928,1.33,-2.1,0.56,1770369793,0.023212879,-0.036651914,0.009773844
4.58621424,-0.55532448,9.08865108,-1.54,-2.87,-0.7,1770369793,-0.02687807,-0.05009095,-0.012217305
4.60057608,-0.55293084,9.05514012,2.87,-2.87,-0.84,1770369793,0.05009095,-0.05009095,-0.014660766
4.59818244,-0.53378172,9.035991,1.47,-2.66,-1.47,1770369793,0.02565634,-0.046425758,-0.02565634
4.59339516,-0.5266008,9.03838464,0.7,-1.54,0.35,1770369793,0.012217305,-0.02687807,0.006108652
4.58860788,-0.56011176,9.06471468,1.19,-1.54,-1.68,1770369793,0.020769418,-0.02687807,-0.029321531
4.62211884,-0.54096264,9.08865108,0.14,-1.12,0.42,1770369793,0.002443461,-0.019547688,0.007330383
4.62929976,-0.49787712,9.10301292,1.89,-1.96,-0.77,1770369793,0.032986723,-0.034208453,-0.013439035
4.63408704,-0.51941988,9.1197684,0.49,-1.75,0.91,1770369793,0.008552113,-0.030543262,0.015882496
4.62451248,-0.52181352,9.095832,1.4,-3.57,1.89,1770369793,0.02443461,-0.062308254,0.032986723
4.62929976,-0.53138808,9.0479592,-0.91,-3.29,0.91,1770369793,-0.015882496,-0.057421332,0.015882496
4.6436616,-0.538569,9.05035284,-1.82,-2.1,1.47,1770369793,-0.031764992,-0.036651914,0.02565634
4.65323616,-0.55532448,9.04317192,2.87,-2.52,-1.12,1770369793,0.05009095,-0.043982297,-0.019547688
4.70110896,-0.52420716,9.02162916,-0.63,-1.33,0.98,1770369793,-0.010995574,-0.023212879,0.017104227
4.6795662,-0.55771812,9.035991,0.98,-2.1,2.1,1770369793,0.017104227,-0.036651914,0.036651914
4.6795662,-0.56489904,9.06471468,1.4,-0.91,0.42,1770369793,0.02443461,-0.015882496,0.007330383
4.67238528,-0.54335628,9.0599274,-1.47,-0.42,1.19,1770369793,-0.02565634,-0.007330383,0.020769418
4.6915344,-0.53138808,9.0479592,0.14,-1.47,0.42,1770369793,0.002443461,-0.02565634,0.007330383
4.62211884,-0.49548348,9.0599274,0.7,0,-0.91,1770369793,0.012217305,0,-0.015882496
4.61733156,-0.50027076,9.06710832,1.47,-0.91,0.84,1770369793,0.02565634,-0.015882496,0.014660766
4.607757,-0.478728,9.08625744,0,-0.98,-0.14,1770369793,0,-0.017104227,-0.002443461
4.54552236,-0.48830256,9.0838638,-0.07,-0.21,0.91,1770369793,-0.00122173,-0.003665191,0.015882496
4.5838206,-0.538569,9.13413024,0.7,-1.47,-1.61,1770369793,0.012217305,-0.02565634,-0.028099801
4.58142696,-0.57686724,9.11498112,0.14,-0.63,0.28,1770369793,0.002443461,-0.010995574,0.004886922
4.57424604,-0.59841,9.09343836,-1.12,-1.54,1.33,1770369793,-0.019547688,-0.02687807,0.023212879
4.58860788,-0.60559092,9.09104472,-0.56,-1.68,-0.63,1770369793,-0.009773844,-0.029321531,-0.010995574
4.58860788,-0.61277184,9.08147016,1.05,-0.91,-0.14,1770369793,0.018325957,-0.015882496,-0.002443461
4.61254428,-0.61755912,9.08147016,0.77,-1.19,-1.47,1770369793,0.013439035,-0.020769418,-0.02565634
4.62211884,-0.55771812,9.06950196,0.56,-2.1,-1.68,1770369793,0.009773844,-0.036651914,-0.029321531
4.64844888,-0.56489904,9.08147016,0.98,-1.47,-0.84,1770369793,0.017104227,-0.02565634,-0.014660766
4.62451248,-0.538569,9.06232104,1.33,-1.89,-0.35,1770369793,0.023212879,-0.032986723,-0.006108652
4.62211884,-0.50984532,9.035991,-1.33,-2.87,2.45,1770369793,-0.023212879,-0.05009095,0.042760567
4.65323616,-0.50984532,9.05753376,0.7,-2.45,-0.14,1770369793,0.012217305,-0.042760567,-0.002443461
4.63887432,-0.51702624,9.0838638,0.14,-0.91,-0.07,1770369793,0.002443461,-0.015882496,-0.00122173
4.61733156,-0.4906962,9.0479592,0.42,-1.12,-0.91,1770369793,0.007330383,-0.019547688,-0.015882496
4.61254428,-0.53378172,9.05274648,1.68,-1.05,0.42,1770369793,0.029321531,-0.018325957,0.007330383
4.62929976,-0.53617536,9.00726732,-2.03,-0.42,-2.8,1770369793,-0.035430184,-0.007330383,-0.048869219
4.61733156,-0.54096264,9.05514012,0,-0.98,-0.49,1770369793,0,-0.017104227,-0.008552113
4.62690612,-0.538569,9.0479592,0.35,-0.91,-3.71,1770369793,0.006108652,-0.015882496,-0.064751715
4.61733156,-0.5266008,9.0718956,0.14,-1.33,2.03,1770369793,0.002443461,-0.023212879,0.035430184
4.6316934,-0.5146326,9.05753376,0.49,-1.54,-0.56,1770369793,0.008552113,-0.02687807,-0.009773844
4.6316934,-0.52420716,9.035991,-1.33,-1.12,0.7,1770369793,-0.023212879,-0.019547688,0.012217305
4.65323616,-0.53617536,9.0000864,-0.98,-2.17,-2.59,1770369793,-0.017104227,-0.037873645,-0.045204028
4.6436616,-0.51941988,9.0120546,-0.35,-0.91,-2.03,1770369793,-0.006108652,-0.015882496,-0.035430184
4.63648068,-0.538569,9.03120372,-1.12,-1.12,-0.49,1770369793,-0.019547688,-0.019547688,-0.008552113
4.66999164,-0.54096264,9.07668288,0.7,-0.21,-2.03,1770369793,0.012217305,-0.003665191,-0.035430184
4.62929976,-0.52181352,9.0838638,-1.89,-0.21,-0.35,1770369794,-0.032986723,-0.003665191,-0.006108652
4.61015064,-0.5146326,9.0718956,0.21,-1.12,-3.71,1770369794,0.003665191,-0.019547688,-0.064751715
4.60536336,-0.5266008,9.0838638,0.77,-1.47,-0.7,1770369794,0.013439035,-0.02565634,-0.012217305
4.60536336,-0.53138808,9.0718956,0.77,-0.07,-0.35,1770369794,0.013439035,-0.00122173,-0.006108652
4.59818244,-0.538569,9.06471468,0.56,-0.56,-2.24,1770369794,0.009773844,-0.009773844,-0.039095375
4.6197252,-0.53138808,9.0838638,-1.89,0,0.35,1770369794,-0.032986723,0,0.006108652
4.65323616,-0.54335628,9.0718956,1.54,-1.33,-1.89,1770369794,0.02687807,-0.023212879,-0.032986723
4.667598,-0.52420716,9.06232104,-1.68,-1.12,-0.91,1770369794,-0.029321531,-0.019547688,-0.015882496
4.63887432,-0.51702624,9.02641644,0.35,-0.77,-0.21,1770369794,0.006108652,-0.013439035,-0.003665191
4.67477892,-0.54335628,9.05753376,-0.77,-1.12,-1.82,1770369794,-0.013439035,-0.019547688,-0.031764992
4.66999164,-0.54096264,9.05274648,-2.24,0.98,-0.91,1770369794,-0.039095375,0.017104227,-0.015882496
4.64844888,-0.48351528,9.0838638,0.91,-0.7,-1.82,1770369794,0.015882496,-0.012217305,-0.031764992
4.62929976,-0.53378172,9.0479592,-0.84,0.07,-0.56,1770369794,-0.014660766,0.00122173,-0.009773844
4.6436616,-0.55532448,9.05753376,-0.7,-0.21,-2.94,1770369794,-0.012217305,-0.003665191,-0.05131268
4.61733156,-0.55532448,9.01923552,0.91,0.35,-1.75,1770369794,0.015882496,0.006108652,-0.030543262
4.59339516,-0.5625054,9.07428924,-0.21,0.35,-1.12,1770369794,-0.003665191,0.006108652,-0.019547688
4.607757,-0.54574992,9.09104472,-0.42,0.63,-1.47,1770369794,-0.007330383,0.010995574,-0.02565634
4.60057608,-0.538569,9.06471468,1.54,-0.98,-1.47,1770369794,0.02687807,-0.017104227,-0.02565634
4.56945876,-0.54574992,9.04317192,0.56,0.91,-1.61,1770369794,0.009773844,0.015882496,-0.028099801
4.5957888,-0.54814356,9.03120372,0.14,0.35,-1.12,1770369794,0.002443461,0.006108652,-0.019547688
4.5838206,-0.55771812,9.035991,-1.47,0.77,-0.14,1770369794,-0.02565634,0.013439035,-0.002443461
4.52876688,-0.52181352,9.08147016,-0.35,0,-3.15,1770369794,-0.006108652,0,-0.054977871
4.55270328,-0.50027076,9.08147016,-0.98,0.91,0.7,1770369794,-0.017104227,0.015882496,0.012217305
4.55509692,-0.47154708,9.08147016,-0.07,-1.12,-1.26,1770369794,-0.00122173,-0.019547688,-0.021991149
4.56945876,-0.47154708,9.09343836,0.98,-1.47,0,1770369794,0.017104227,-0.02565634,0
4.57424604,-0.48112164,9.15088572,-1.54,-0.77,-1.47,1770369794,-0.02687807,-0.013439035,-0.02565634
4.65084252,-0.46915344,9.11498112,0,-1.89,-1.12,1770369794,0,-0.032986723,-0.019547688
4.64605524,-0.49548348,9.09343836,-0.7,-1.33,-1.26,1770369794,-0.012217305,-0.023212879,-0.021991149
4.63408704,-0.53617536,9.04317192,0,-1.12,-2.59,1770369794,0,-0.019547688,-0.045204028
4.61254428,-0.56489904,9.00487368,0.56,-0.98,-1.12,1770369794,0.009773844,-0.017104227,-0.019547688
4.60057608,-0.53138808,8.99769276,-1.26,-0.14,-1.68,1770369794,-0.021991149,-0.002443461,-0.029321531
4.60057608,-0.50027076,9.02641644,0.49,-1.54,-1.82,1770369794,0.008552113,-0.02687807,-0.031764992
4.59339516,-0.51223896,9.01923552,0.91,-1.19,-1.89,1770369794,0.015882496,-0.020769418,-0.032986723
4.59818244,-0.49787712,9.02162916,0.35,-1.12,-1.61,1770369794,0.006108652,-0.019547688,-0.028099801
4.60296972,-0.51702624,9.00487368,0.21,-1.33,-1.61,1770369794,0.003665191,-0.023212879,-0.028099801
4.62929976,-0.50505804,9.00966096,-1.12,-1.75,-1.12,1770369794,-0.019547688,-0.030543262,-0.019547688
4.66999164,-0.50505804,9.03359736,0.77,-0.77,-3.08,1770369794,0.013439035,-0.013439035,-0.053756141
4.6436616,-0.5146326,9.06232104,-1.05,-0.91,-2.73,1770369794,-0.018325957,-0.015882496,-0.047647489
4.65323616,-0.50745168,9.02162916,0.56,-1.33,-0.56,1770369794,0.009773844,-0.023212879,-0.009773844
4.66041708,-0.52181352,9.02881008,0.98,0.21,-0.7,1770369794,0.017104227,0.003665191,-0.012217305
4.66281072,-0.5266008,9.04077828,-0.77,-0.35,-0.21,1770369794,-0.013439035,-0.006108652,-0.003665191
4.6436616,-0.5266008,9.07907652,0.42,-1.89,-0.7,1770369794,0.007330383,-0.032986723,-0.012217305
4.64126796,-0.54814356,9.07668288,0.7,-1.68,-0.91,1770369794,0.012217305,-0.029321531,-0.015882496
4.59100152,-0.54096264,9.095832,2.24,-1.89,-0.35,1770369794,0.039095375,-0.032986723,-0.006108652
4.63408704,-0.53378172,9.11019384,0.56,-1.75,-0.91,1770369794,0.009773844,-0.030543262,-0.015882496
4.62690612,-0.56011176,9.14849208,-0.77,-1.54,-1.4,1770369794,-0.013439035,-0.02687807,-0.02443461
