acc_x,acc_y,acc_z,gyro_x,gyro_y,gyro_z,timestamp
-0.246460728,-0.658026215,10.26760178,-0.05009095,0.00122173,-0.094073247,1756821804
-0.256032018,-0.729810893,10.29870847,-0.058643063,0.031764992,-0.079412481,1756821804
-0.253639196,-0.823130974,10.24367355,-0.030543262,0.036651914,-0.125838239,1756821804
-0.282353067,-0.949950572,10.23170944,-0.036651914,0.053756141,-0.07574729,1756821804
-0.392422906,-0.983450089,10.17188887,-0.015882496,0.05009095,-0.080634211,1756821804
-0.425922423,-0.995414202,10.07617597,0.00122173,0.036651914,-0.05131268,1756821804
-0.449850649,-0.940379282,10.10249702,0.009773844,0.017104227,-0.019547688,1756821804
-0.466600407,-0.887737185,10.17188887,0.02687807,0.032986723,-0.074525559,1756821804
-0.464207584,-0.811166861,10.27478024,0.02565634,0.013439035,-0.021991149,1756821804
-0.483350165,-0.710668312,10.3226367,0.015882496,0.036651914,-0.036651914,1756821804
-0.550349198,-0.684347264,10.37527879,-0.003665191,0.036651914,-0.035430184,1756821804
-0.641276457,-0.660419038,10.35613621,0.009773844,0.059864793,-0.02565634,1756821804
-0.679561618,-0.614955408,10.31067258,0.012217305,0.05131268,-0.081855942,1756821804
-0.736989361,-0.583848714,10.2699946,0.013439035,0.092851516,-0.003665191,1756821804
-0.775274522,-0.53359944,10.13360371,0.009773844,0.090408055,-0.043982297,1756821804
-0.875773072,-0.528813795,10.03789081,0.013439035,0.085521133,-0.042760567,1756821804
-0.935593637,-0.528813795,9.93021379,0,0.084299403,-0.007330383,1756821804
-1.019342428,-0.507278391,9.848857822,0.036651914,0.067195176,-0.034208453,1756821804
-1.112662509,-0.507278391,9.750752095,0.036651914,0.069638637,-0.045204028,1756821804
-1.18684001,-0.449850649,9.750752095,0.029321531,0.059864793,-0.029321531,1756821804
-1.292124204,-0.3493521,9.796215724,0.042760567,0.063529985,-0.072082098,1756821804
-1.423729447,-0.210568389,9.9206425,0.048869219,0.043982297,-0.081855942,1756821805
-1.596012674,-0.066999033,9.987641532,0.032986723,0.035430184,-0.105068821,1756821805
-1.672582997,-0.023928226,10.06421186,0.032986723,0.030543262,-0.150272849,1756821805
-1.689332756,0.031106694,10.08814008,0.032986723,-0.00122173,-0.15271631,1756821805
-1.584048561,0.086141614,10.0905329,0.042760567,-0.015882496,-0.173485728,1756821805
-1.428515092,0.11964113,10.08096161,0.067195176,-0.02443461,-0.182037841,1756821805
-1.375872995,0.181854518,9.822536773,0.05009095,-0.039095375,-0.228463599,1756821805
-1.270588801,0.160319114,9.851250644,0.017104227,-0.070860368,-0.199142068,1756821805
-1.208375413,0.083748791,9.887142983,0.019547688,-0.048869219,-0.189368224,1756821805
-1.198804123,0.043070807,9.968498952,0.040317106,-0.074525559,-0.20525072,1756821805
-1.074377347,-0.057427742,9.956534839,0.006108652,-0.084299403,-0.184481302,1756821805
-1.004985492,-0.131605243,9.968498952,0.02565634,-0.089186325,-0.199142068,1756821805
-0.873380249,-0.251246373,9.968498952,-0.006108652,-0.098960169,-0.186924763,1756821805
-0.693918554,-0.351744922,10.00199847,-0.023212879,-0.118507856,-0.134390352,1756821805
-0.557527666,-0.454636294,10.0474621,0.007330383,-0.131946891,-0.182037841,1756821805
-0.418743955,-0.559920488,10.09292573,-0.015882496,-0.144164196,-0.139277274,1756821805
-0.311066938,-0.643669279,10.10010419,-0.003665191,-0.120951317,-0.168598806,1756821805
-0.196211453,-0.691525731,10.1216396,-0.032986723,-0.087964594,-0.149051118,1756821805
-0.141176533,-0.710668312,10.143175,-0.02687807,-0.074525559,-0.142942466,1756821805
-0.081355968,-0.748953474,10.14078218,-0.040317106,-0.056199602,-0.149051118,1756821805
-0.086141614,-0.792024281,10.25085202,-0.013439035,-0.035430184,-0.149051118,1756821805
-0.112462662,-0.787238635,10.22931661,-0.040317106,-0.009773844,-0.15393804,1756821805
-0.136390888,-0.815952507,10.23170944,0.006108652,-0.004886922,-0.139277274,1756821805
-0.232103792,-0.863808959,10.2173525,0.003665191,-0.004886922,-0.107512282,1756821805
-0.378065971,-0.909272588,10.10967548,-0.017104227,0.006108652,-0.12950343,1756821805
-0.519242504,-0.914058233,10.06421186,0.008552113,-0.004886922,-0.089186325,1756821805
-0.634097989,-0.90209412,9.990034355,0.039095375,-0.012217305,-0.10140363,1756821805
-0.753739119,-0.911665411,9.944570726,0.029321531,-0.008552113,-0.07819075,1756821805
-0.830309442,-0.887737185,9.966106129,0.043982297,-0.028099801,-0.064751715,1756821805
-0.854237668,-0.787238635,10.00678411,0.043982297,-0.020769418,-0.074525559,1756821805
-0.911665411,-0.689132909,10.03549798,0.062308254,-0.018325957,-0.057421332,1756821805
-0.911665411,-0.610169763,10.09292573,0.057421332,-0.019547688,-0.072082098,1756821805
-0.954736217,-0.502492746,10.15274629,0.041538836,-0.023212879,-0.05009095,1756821805
-1.031306541,-0.442672181,10.15992476,0.046425758,-0.031764992,-0.05131268,1756821805
-1.048056299,-0.404387019,10.11924678,0.05009095,-0.057421332,-0.007330383,1756821805
-1.064806057,-0.3493521,10.07378315,0.062308254,-0.041538836,-0.010995574,1756821805
-1.095912751,-0.306281293,10.01156976,0.087964594,-0.065973446,0.009773844,1756821805
-1.074377347,-0.29431718,9.951749193,0.058643063,-0.054977871,0.002443461,1756821805
-1.028913718,-0.296710002,9.884750161,0.079412481,-0.097738438,-0.007330383,1756821805
-1.007378315,-0.253639196,9.918249677,0.065973446,-0.091629786,0.003665191,1756821805
-1.009771137,-0.220139679,10.00678411,0.042760567,-0.054977871,0.029321531,1756821805
-1.014556782,-0.165104759,10.11446113,0.064751715,-0.084299403,-0.035430184,1756821805
-1.043270654,-0.124426775,10.15753194,0.048869219,-0.059864793,-0.032986723,1756821805
-1.069591702,-0.098105727,10.20060274,0.035430184,-0.074525559,-0.045204028,1756821805
-1.055234767,-0.069391855,10.1647104,0.035430184,-0.084299403,-0.065973446,1756821805
-1.004985492,-0.011964113,10.12881807,0.019547688,-0.109955743,-0.068416907,1756821805
-0.878165894,0.021535403,10.0689975,0.030543262,-0.113620934,-0.07574729,1756821805
-0.760917587,0.045463629,9.999605645,0.029321531,-0.1282817,-0.073303829,1756821805
-0.646062102,0.040677984,10.03549798,0.013439035,-0.105068821,-0.086742864,1756821805
-0.500099923,0.026321049,10.06181903,0.02687807,-0.089186325,-0.059864793,1756821805
-0.41395831,0,10.14078218,-0.012217305,-0.058643063,-0.048869219,1756821805
-0.36849468,-0.05503492,10.19820992,-0.018325957,-0.064751715,-0.080634211,1756821805
-0.375673148,-0.11964113,10.13599653,0.003665191,-0.021991149,-0.008552113,1756821805
-0.380458793,-0.189032985,10.08814008,-0.009773844,-0.010995574,-0.063529985,1756821805
-0.401994197,-0.270388954,10.05224774,-0.012217305,-0.014660766,-0.056199602,1756821805
-0.385244439,-0.344566454,10.0689975,-0.059864793,-0.015882496,-0.023212879,1756821805
-0.375673148,-0.35892339,10.10010419,-0.020769418,-0.002443461,-0.058643063,1756821805
-0.385244439,-0.399601374,10.10249702,-0.059864793,0,-0.029321531,1756821805
-0.454636294,-0.36849468,10.05942621,-0.05253441,0.009773844,-0.032986723,1756821805
-0.531206617,-0.4235296,10.04506927,-0.069638637,0.023212879,-0.009773844,1756821805
-0.610169763,-0.418743955,10.06421186,-0.062308254,0.02687807,-0.07574729,1756821805
-0.705882667,-0.449850649,10.10010419,-0.069638637,0.046425758,-0.019547688,1756821805
-0.787238635,-0.509671214,10.10728266,-0.072082098,0.040317106,-0.058643063,1756821805
-0.83748791,-0.545563553,10.14796065,-0.054977871,0.036651914,-0.036651914,1756821805
-0.844666378,-0.581455892,10.17188887,-0.083077672,0.041538836,-0.013439035,1756821805
-0.835095087,-0.619741053,10.143175,-0.05009095,0.007330383,-0.05253441,1756821805
-0.794417103,-0.722632425,10.12881807,-0.032986723,0.003665191,-0.009773844,1756821805
-0.808774039,-0.784845813,10.05224774,-0.023212879,0.007330383,-0.006108652,1756821805
-0.83748791,-0.844666378,9.98524871,-0.006108652,-0.014660766,0.002443461,1756821805
-0.89252283,-0.8470592,9.975677419,0.032986723,0.007330383,0.009773844,1756821805
-0.952343395,-0.806381216,10.06181903,0.019547688,-0.00122173,0.017104227,1756821805
-0.952343395,-0.703489844,10.14796065,0.017104227,-0.014660766,0.02687807,1756821805
-0.930807991,-0.629312344,10.14556782,0.040317106,-0.015882496,0.048869219,1756821805
-0.8470592,-0.576670247,10.11924678,-0.003665191,-0.02565634,0.042760567,1756821805
-0.839880733,-0.555134843,10.14796065,0.015882496,-0.034208453,0.072082098,1756821805
-0.801595571,-0.516849682,10.14078218,0,-0.015882496,0.065973446,1756821805
-0.82791662,-0.531206617,10.14078218,0.003665191,-0.019547688,0.064751715,1756821805
-0.825523797,-0.564706134,10.08574726,0.019547688,-0.02443461,0.097738438,1756821805
-0.842273555,-0.581455892,10.03071234,-0.006108652,-0.031764992,0.094073247,1756821805
-0.868594604,-0.610169763,9.997212823,0.030543262,-0.039095375,0.094073247,1756821805
-0.89252283,-0.614955408,9.954142016,0.015882496,-0.045204028,0.107512282,1756821805
-0.921236701,-0.583848714,9.978070242,0.039095375,-0.041538836,0.092851516,1756821805
-0.942772104,-0.555134843,9.918249677,0.034208453,-0.068416907,0.086742864,1756821805
-0.96670033,-0.485742988,9.911071209,0.017104227,-0.094073247,0.064751715,1756821805
-0.952343395,-0.344566454,9.932606613,0.02687807,-0.095294977,0.041538836,1756821805
-0.96670033,-0.234496615,9.973284597,0.006108652,-0.10262536,0.063529985,1756821805
-0.985842911,-0.088534436,10.02592669,0.02687807,-0.086742864,-0.00122173,1756821805
-0.945164927,-0.016749758,10.05703339,0.017104227,-0.079412481,0.002443461,1756821805
-0.959521863,0.071784678,10.02353387,0.043982297,-0.048869219,-0.035430184,1756821805
-0.930807991,0.148355001,10.03549798,0.05009095,-0.05131268,-0.035430184,1756821805
-0.897308475,0.208175566,10.04267645,0.032986723,-0.074525559,-0.013439035,1756821805
-0.823130974,0.23928226,10.0163554,0.059864793,-0.061086524,-0.05253441,1756821805
-0.760917587,0.22971097,9.963713306,0.040317106,-0.080634211,-0.019547688,1756821805
-0.65324057,0.17467605,9.982855887,0.039095375,-0.069638637,-0.020769418,1756821805
-0.531206617,0.045463629,9.946963548,0.029321531,-0.035430184,-0.036651914,1756821805
-0.461814762,-0.052642097,10.00917694,-0.002443461,-0.014660766,-0.007330383,1756821805
-0.485742988,-0.138783711,10.01156976,0,0.00122173,-0.019547688,1756821805
-0.471386052,-0.177068872,10.10728266,-0.023212879,0.010995574,-0.015882496,1756821805
-0.524028149,-0.232103792,10.13599653,-0.032986723,-0.00122173,-0.058643063,1756821805
-0.504885569,-0.313459761,10.15992476,-0.019547688,-0.008552113,0.006108652,1756821805
-0.483350165,-0.356530567,10.16949605,-0.062308254,0,-0.068416907,1756821805
-0.457029117,-0.356530567,10.20060274,-0.02687807,0.010995574,-0.021991149,1756821805
-0.445065004,-0.375673148,10.19103145,-0.089186325,0.040317106,-0.048869219,1756821805
-0.433100891,-0.442672181,10.1216396,-0.064751715,0.043982297,-0.048869219,1756821805
-0.452243471,-0.519242504,10.08335444,-0.043982297,0.059864793,-0.003665191,1756821805
-0.507278391,-0.564706134,10.09292573,-0.085521133,0.05009095,-0.02565634,1756821805
-0.559920488,-0.59820565,10.09531855,-0.058643063,0.067195176,-0.012217305,1756821805
-0.602991295,-0.677168796,10.11924678,-0.053756141,0.057421332,-0.045204028,1756821805
-0.624526699,-0.748953474,10.10010419,-0.05131268,0.059864793,0.008552113,1756821805
-0.677168796,-0.835095087,10.07378315,-0.036651914,0.057421332,-0.010995574,1756821805
-0.736989361,-0.866201781,10.02831952,-0.035430184,0.073303829,0,1756821805
-0.7728817,-0.854237668,10.01874823,-0.030543262,0.07696902,-0.015882496,1756821805
-0.813559684,-0.854237668,10.01396258,-0.039095375,0.086742864,-0.007330383,1756821805
-0.878165894,-0.768096055,10.04506927,-0.008552113,0.070860368,-0.00122173,1756821805
-0.890130007,-0.720239603,10.0689975,-0.003665191,0.063529985,-0.003665191,1756821805
-0.969093153,-0.698704199,10.11685395,-0.02565634,0.07696902,0.012217305,1756821805
-1.000199847,-0.643669279,10.1742817,0.007330383,0.070860368,0.012217305,1756821805
-1.043270654,-0.60777694,10.21256686,0.012217305,0.061086524,0.031764992,1756821805
-1.081555815,-0.600598473,10.24606637,-0.002443461,0.032986723,0.012217305,1756821805
-1.091127106,-0.576670247,10.16231758,0.019547688,0.039095375,0.054977871,1756821805
-1.107876864,-0.581455892,10.07139032,0.029321531,0.003665191,0.02565634,1756821805
-1.045663476,-0.53359944,10.07617597,0.030543262,-0.006108652,0.045204028,1756821805
-1.016949605,-0.500099923,10.0905329,0.042760567,-0.006108652,0.019547688,1756821805
-1.062413234,-0.504885569,10.06421186,0.039095375,0.007330383,0.029321531,1756821805
-1.074377347,-0.483350165,10.0163554,0.053756141,-0.029321531,0.02687807,1756821805
-1.119840977,-0.48813581,9.961320484,0.034208453,-0.021991149,0.006108652,1756821806
-1.167697429,-0.399601374,9.915856854,0.059864793,-0.041538836,0.015882496,1756821806
-1.179661542,-0.3493521,9.879964515,0.036651914,-0.062308254,-0.017104227,1756821806
-1.148554848,-0.22971097,9.906285564,0.056199602,-0.092851516,-0.015882496,1756821806
-1.100698396,-0.143569356,9.963713306,0.02565634,-0.10140363,-0.067195176,1756821806
-1.062413234,-0.062213388,9.992427178,0.023212879,-0.095294977,-0.05131268,1756821806
-0.983450089,0.014356936,10.0474621,0.059864793,-0.095294977,-0.072082098,1756821806
-0.918843878,0.05503492,10.06181903,0.046425758,-0.054977871,-0.081855942,1756821806
-0.849452023,0.069391855,10.09292573,0.023212879,-0.058643063,-0.031764992,1756821806
-0.813559684,0.031106694,10.05703339,0.067195176,-0.041538836,-0.095294977,1756821806
-0.78245299,-0.019142581,10.03789081,0.037873645,-0.045204028,-0.048869219,1756821806
-0.729810893,-0.100498549,9.980463065,0.056199602,-0.058643063,-0.059864793,1756821806
-0.701097022,-0.143569356,9.982855887,0.02565634,-0.065973446,-0.040317106,1756821806
-0.669990328,-0.162711937,10.0163554,0.039095375,-0.045204028,-0.039095375,1756821806
-0.574277424,-0.265603309,10.02592669,0.030543262,-0.05253441,-0.032986723,1756821806
-0.552742021,-0.308674115,10.08096161,-0.007330383,-0.045204028,-0.042760567,1756821806
-0.47856452,-0.370887503,10.11685395,0.002443461,-0.02565634,-0.068416907,1756821806
-0.454636294,-0.404387019,10.05224774,0.009773844,-0.009773844,-0.05253441,1756821806
-0.437886536,-0.442672181,10.07856879,-0.030543262,0.006108652,-0.091629786,1756821806
-0.457029117,-0.492921456,10.14078218,-0.017104227,-0.002443461,-0.05009095,1756821806
-0.461814762,-0.48813581,10.16231758,-0.045204028,-0.012217305,-0.084299403,1756821806
-0.46899323,-0.540777908,10.1647104,-0.065973446,-0.006108652,-0.109955743,1756821806
-0.524028149,-0.579063069,10.15274629,-0.05253441,0.010995574,-0.080634211,1756821806
-0.502492746,-0.60777694,10.1216396,-0.056199602,0.014660766,-0.089186325,1756821806
-0.54317073,-0.660419038,10.10488984,-0.05253441,0.037873645,-0.040317106,1756821806
-0.586241537,-0.655633392,10.0689975,-0.05009095,0.040317106,-0.061086524,1756821806
-0.610169763,-0.684347264,10.13121089,-0.046425758,0.043982297,-0.085521133,1756821806
-0.650847747,-0.701097022,10.15753194,-0.015882496,0.047647489,-0.063529985,1756821806
-0.715453957,-0.686740086,10.14796065,-0.040317106,0.05253441,-0.081855942,1756821806
-0.758524764,-0.710668312,10.12881807,-0.009773844,0.059864793,-0.061086524,1756821806
-0.832702265,-0.775274522,10.05703339,-0.023212879,0.065973446,-0.021991149,1756821806
-0.89252283,-0.825523797,9.954142016,0.012217305,0.063529985,-0.046425758,1756821806
-0.911665411,-0.835095087,9.951749193,-0.006108652,0.063529985,-0.062308254,1756821806
-0.973878798,-0.768096055,10.00917694,0.021991149,0.053756141,-0.019547688,1756821806
-0.997807024,-0.693918554,10.02592669,0.020769418,0.02687807,-0.003665191,1756821806
-1.000199847,-0.629312344,10.08335444,0.012217305,0.029321531,-0.019547688,1756821806
-1.000199847,-0.557527666,10.15274629,0.019547688,0.017104227,-0.015882496,1756821806
-1.026520895,-0.545563553,10.17667452,-0.008552113,0.013439035,0.002443461,1756821806
-1.06719888,-0.504885569,10.15035347,0.013439035,0.006108652,0.034208453,1756821806
-1.074377347,-0.512064036,10.05703339,-0.031764992,-0.013439035,-0.013439035,1756821806
-1.079162993,-0.483350165,10.02114105,-0.023212879,-0.012217305,-0.004886922,1756821806
-1.098305573,-0.454636294,9.970891774,-0.007330383,-0.032986723,0.035430184,1756821806
-1.074377347,-0.433100891,9.982855887,0.00122173,-0.058643063,-0.013439035,1756821806
-1.052841944,-0.409172665,9.958927661,0,-0.054977871,0.031764992,1756821806
-1.019342428,-0.399601374,9.925428145,-0.02687807,-0.065973446,-0.02565634,1756821806
-0.973878798,-0.385244439,9.958927661,-0.021991149,-0.068416907,0.00122173,1756821806
-0.945164927,-0.356530567,9.925428145,-0.015882496,-0.092851516,-0.039095375,1756821806
-0.918843878,-0.337387987,9.925428145,-0.042760567,-0.090408055,-0.029321531,1756821806
-0.878165894,-0.284745889,9.934999435,-0.009773844,-0.081855942,-0.058643063,1756821806
-0.859023313,-0.251246373,9.98524871,-0.036651914,-0.05253441,-0.032986723,1756821806
-0.803988394,-0.241675083,10.05464057,-0.057421332,-0.037873645,-0.083077672,1756821806
-0.8470592,-0.090927259,10.03549798,-0.017104227,-0.035430184,-0.111177473,1756821806
-0.882951539,-0.162711937,10.10488984,0.003665191,-0.054977871,-0.087964594,1756821806
-0.904486943,-0.124426775,10.10488984,-0.023212879,-0.029321531,-0.113620934,1756821806
-0.90209412,-0.17467605,10.08335444,0.007330383,-0.037873645,-0.056199602,1756821806
-0.873380249,-0.246460728,10.04506927,0.015882496,-0.05131268,-0.107512282,1756821806
-0.83748791,-0.272781776,9.978070242,0.015882496,-0.02565634,-0.10140363,1756821806
-0.78245299,-0.323031051,10.00678411,0.015882496,-0.006108652,-0.107512282,1756821806
-0.729810893,-0.390030084,10.03310516,0.013439035,-0.019547688,-0.070860368,1756821806
-0.557527666,-0.466600407,10.19342428,0.030543262,0.042760567,-0.05009095,1756821806
-0.713061135,-0.296710002,9.987641532,0,0.030543262,-0.081855942,1756821806
-0.734596538,-0.392422906,10.03549798,-0.017104227,0.009773844,-0.072082098,1756821806
-0.691525731,-0.394815729,10.15513911,-0.021991149,0.020769418,-0.084299403,1756821806
-0.591027182,-0.466600407,10.24606637,-0.02565634,0.029321531,-0.081855942,1756821806
-0.631705166,-0.291924357,10.03789081,-0.062308254,-0.003665191,-0.117286126,1756821806
-0.60777694,-0.330209519,10.02353387,-0.108734012,0.003665191,-0.089186325,1756821806
-0.433100891,-0.378065971,10.15992476,-0.069638637,0.008552113,-0.117286126,1756821806
-0.428315245,-0.282353067,10.17906734,-0.108734012,0.037873645,-0.105068821,1756821806
-0.512064036,-0.267996131,10.09292573,-0.120951317,0.02687807,-0.123394778,1756821806
-0.36849468,-0.435493713,10.21974532,-0.141720735,0.079412481,-0.150272849,1756821806
-0.564706134,-0.260817663,9.949356371,-0.147829388,0.056199602,-0.167377075,1756821806
-0.514456859,-0.507278391,10.03789081,-0.138055544,0.07696902,-0.194255146,1756821806
-0.555134843,-0.531206617,10.02114105,-0.147829388,0.123394778,-0.175929189,1756821806
-0.617348231,-0.622133876,10.04028363,-0.149051118,0.109955743,-0.208915911,1756821806
-0.748953474,-0.555134843,9.987641532,-0.177150919,0.1282817,-0.156381501,1756821806
-0.679561618,-0.736989361,10.11206831,-0.1282817,0.160046692,-0.182037841,1756821806
-0.813559684,-0.591027182,10.01396258,-0.134390352,0.116064395,-0.184481302,1756821806
-0.880558717,-0.679561618,10.00199847,-0.133168622,0.12950343,-0.175929189,1756821806
-0.849452023,-0.794417103,10.02592669,-0.097738438,0.113620934,-0.166155345,1756821806
-0.796809926,-0.815952507,10.00199847,-0.105068821,0.145385927,-0.120951317,1756821806
-0.887737185,-0.792024281,9.781858789,-0.086742864,0.155159771,-0.162490153,1756821806
-0.887737185,-0.851844846,9.729216692,-0.083077672,0.142942466,-0.12705997,1756821806
-0.861416136,-0.813559684,9.729216692,-0.068416907,0.140499005,-0.17837265,1756821806
-0.930807991,-0.70827549,9.767501853,-0.068416907,0.135612083,-0.146607657,1756821806
-0.914058233,-0.614955408,9.841679354,-0.079412481,0.118507856,-0.118507856,1756821806
-0.909272588,-0.459421939,9.891928628,-0.118507856,0.141720735,-0.175929189,1756821806
-0.875773072,-0.363709035,9.915856854,-0.122173048,0.149051118,-0.182037841,1756821806
-0.89252283,-0.299102825,9.956534839,-0.164933614,0.149051118,-0.175929189,1756821806
-0.935593637,-0.212961211,10.01156976,-0.194255146,0.146607657,-0.193033415,1756821806
-0.978664443,-0.23928226,10.01874823,-0.246789556,0.133168622,-0.208915911,1756821806
-1.040877831,-0.277567422,10.05224774,-0.248011287,0.141720735,-0.227241869,1756821806
-1.112662509,-0.29431718,10.12403242,-0.2565634,0.125838239,-0.23090706,1756821806
-1.229910816,0.033499516,10.20778121,-0.287106679,0.116064395,-0.260228591,1756821806
-1.268195978,0.378065971,10.30588694,-0.345749707,0.034208453,-0.322536846,1756821806
-1.088734283,1.282552914,10.20778121,-0.445931606,-0.05131268,-0.459370659,1756821806
-0.882951539,1.06719888,10.21017403,-0.547335271,-0.164933614,-0.505796417,1756821806
-0.586241537,-0.256032018,10.22931661,-0.504574687,-0.136833813,-0.499687747,1756821806
-0.734596538,-0.952343395,10.19342428,-0.397062405,-0.029321531,-0.409279727,1756821806
-0.545563553,-1.007378315,10.31545823,-0.250454748,0.029321531,-0.375071256,1756821806
-0.504885569,-1.574477271,10.41595678,-0.068416907,0.17837265,-0.361632204,1756821806
-0.547956375,-1.643869126,10.41117113,0.043982297,0.274889357,-0.329867229,1756821806
-0.485742988,-1.387837108,10.41117113,0.158824962,0.372627795,-0.372627795,1756821806
-0.306281293,-0.988235734,10.22213815,0.188146493,0.428827397,-0.328645498,1756821806
-0.787238635,-1.079162993,10.76291605,0.302989176,0.537561392,-0.370184317,1756821806
-1.378265818,-0.449850649,10.85623614,0.317649941,0.665843145,-0.388510291,1756821806
-1.339980656,-0.631705166,10.87777154,0.333532438,0.685390797,-0.397062405,1756821806
-1.842473402,-0.157926292,10.62173952,0.329867229,0.625526004,-0.390953752,1756821806
-1.770688724,-0.040677984,10.30110129,0.439822989,0.60353489,-0.453261989,1756821806
-1.974078645,0.105284194,10.04985492,0.472809694,0.60231309,-0.449596815,1756821806
-1.962114532,0.318245406,10.06421186,0.502131226,0.592539299,-0.494800843,1756821806
-1.916650903,0.392422906,10.00199847,0.547335271,0.596204472,-0.56321775,1756821806
-1.971685822,0.526420972,9.954142016,0.590095838,0.557109097,-0.544891775,1756821806
-2.122433646,0.734596538,9.863214757,0.565661211,0.554665654,-0.570548115,1756821806
-2.294716873,0.796809926,9.664610481,0.604756621,0.521678896,-0.56443948,1756821806
-2.467000101,0.988235734,9.504291367,0.58398715,0.50701813,-0.58276542,1756821806
-2.62253357,1.014556782,9.32243685,0.542448332,0.514348513,-0.580321976,1756821806
-2.804388087,1.13180509,9.131011042,0.519235452,0.472809694,-0.58276542,1756821806
-2.962314379,1.182054364,8.992227331,0.482583538,0.432492606,-0.574213359,1756821806
-3.058027283,1.122233799,8.822336926,0.472809694,0.378736465,-0.557109097,1756821806
-3.270988494,1.20598259,8.599804424,0.423940493,0.323758559,-0.541226601,1756821806
-3.297309543,1.136590735,8.389236036,0.421497014,0.200363798,-0.509461626,1756821806
-3.323630591,1.210768236,8.130811195,0.41661011,0.07574729,-0.504574687,1756821806
-3.311666478,1.323230898,8.118847082,0.409279727,-0.006108652,-0.455705485,1756821806
-3.282952607,1.366301705,8.338986761,0.403171057,-0.107512282,-0.423940493,1756821806
-3.244667446,1.428515092,8.60459007,0.393397231,-0.206472451,-0.38362337,1756821806
-3.206382284,1.414158157,8.84387233,0.367740873,-0.262672052,-0.371406082,1756821807
-3.136990429,1.356730414,9.090333057,0.320093385,-0.322536846,-0.373849526,1756821807
-3.139383251,1.201196945,9.33200814,0.277332818,-0.355523586,-0.388510291,1756821807
-2.983849782,0.990628556,9.473184673,0.260228591,-0.398284135,-0.373849526,1756821807
-2.845066071,0.813559684,9.537790884,0.235793982,-0.470366251,-0.398284135,1756821807
-2.63210486,0.54317073,9.623932497,0.190589954,-0.536339679,-0.366519143,1756821807
-2.445464697,0.466600407,9.70050282,0.196698607,-0.634078152,-0.404392788,1756821807
-2.160718808,0.265603309,9.851250644,0.182037841,-0.746477321,-0.334754151,1756821807
-2.017149452,0.179461695,10.0163554,0.293215297,-0.839328837,-0.312763002,1756821807
-1.768295901,0.062213388,10.28195871,0.294437062,-0.897971918,-0.283441471,1756821807
-1.509871061,0.086141614,10.51884815,0.350636647,-0.945619389,-0.289550123,1756821807
-1.30648114,0.263210486,10.95194904,0.444709893,-0.943175945,-0.30665435,1756821807
-1.162911784,0.574277424,11.2869442,0.524122392,-0.905302266,-0.309097793,1756821807
-0.96670033,1.074377347,11.49272695,0.576656802,-0.825889802,-0.355523586,1756821807
-0.780060168,1.646261949,11.73679485,0.68050391,-0.682947354,-0.406836231,1756821807
-0.591027182,2.20857526,11.7942226,0.728151381,-0.483805251,-0.41661011,1756821807
-0.418743955,2.775674216,11.77508001,0.821002898,-0.291993584,-0.448375102,1756821807
-0.313459761,3.326023414,11.80379389,0.907745709,-0.094073247,-0.481361808,1756821807
-0.227318147,3.756731482,11.96172018,1.033584,0.057421332,-0.537561392,1756821807
-0.066999033,4.352544309,11.99282687,1.032362287,0.17959438,-0.629191178,1756821807
-0.088534436,4.835894475,11.83968622,1.126435517,0.200363798,-0.642630231,1756821807
0.306281293,4.979463831,11.39462122,1.016479791,0.175929189,-0.676838666,1756821807
0.531206617,5.187639397,10.83709356,0.939510771,0.010995574,-0.615752143,1756821807
0.921236701,5.163711171,10.5451692,0.864985195,-0.156381501,-0.605978334,1756821807
1.289731381,5.37427956,10.54277638,0.77579887,-0.307876063,-0.566882941,1756821807
1.746760498,5.180460929,10.85145049,0.634078152,-0.480140077,-0.488692191,1756821807
2.277967115,5.400600608,11.00459114,0.412944901,-0.638965057,-0.478918364,1756821807
2.732603409,5.570491013,10.98544856,0.112399204,-0.772133696,-0.393397231,1756821807
3.146561719,5.496313512,10.95194904,-0.233350521,-0.83199842,-0.328645498,1756821807
3.52462769,5.333601575,10.73420218,-0.612086969,-0.724486138,-0.226020138,1756821807
3.713660675,5.039284396,10.39202855,-0.8906415,-0.542448332,-0.207694181,1756821807
3.842873096,4.41715052,9.913464032,-1.125213786,-0.249233017,-0.150272849,1756821807
3.388236802,4.254438583,8.815158458,-1.287703905,0.058643063,-0.168598806,1756821807
2.866601475,3.603590836,7.903493048,-1.425759501,0.444709893,-0.257785131,1756821807
2.225325018,2.605783811,7.228717075,-1.507615356,0.896750187,-0.335975881,1756821807
1.777867192,1.495514125,7.149753929,-1.431868136,1.354899046,-0.481361808,1756821807
1.20598259,0.284745889,7.403393124,-1.298699566,1.802052453,-0.494800843,1756821807
0.746560651,-0.334995164,7.843672483,-1.165530857,2.085493888,-0.62308256,1756821807
0.203389921,-1.146162025,8.425128375,-0.999375495,2.229658119,-0.648738848,1756821807
-0.464207584,-1.720439449,9.008977089,-0.926071719,2.311514096,-0.678060379,1756821807
-1.045663476,-2.215753728,9.68136024,-0.762359817,2.293188087,-0.691499432,1756821807
-1.813759531,-2.825923491,10.41117113,-0.720820964,2.124589351,-0.719599251,1756821807
-2.244467599,-3.268595672,10.98784138,-0.653625822,1.938886196,-0.697608119,1756821807
-2.488535504,-2.653640263,11.10748251,-0.508239896,1.666440422,-0.653625822,1756821807
-2.481357036,-3.711267853,11.49033413,-0.557109097,1.362229534,-0.3775147,1756821807
-3.314059301,-4.606183505,11.39462122,-0.586430594,1.14720497,-0.309097793,1756821807
-3.661018578,-5.362315447,11.21994517,-0.632856352,0.857654777,-0.725707938,1756821807
-2.947957443,-5.414957544,10.88255718,-0.524122392,0.588874125,-0.79534654,1756821807
-2.50289244,-5.398207786,10.67677444,-0.343306264,0.30665435,-0.857654777,1756821807
-2.182254211,-5.345565688,10.61216823,-0.251676478,0.119729587,-0.840550568,1756821807
-1.847259047,-5.137390122,10.60020412,-0.112399204,-0.019547688,-0.789237905,1756821807
-1.579262916,-4.754538506,10.61695388,-0.017104227,-0.089186325,-0.83322022,1756821807
-1.402194044,-3.940978822,10.60498976,0.062308254,-0.072082098,-0.821002898,1756821807
-1.241874929,-3.136990429,10.64806057,0.182037841,-0.056199602,-0.801455158,1756821807
-1.189232832,-2.400001068,10.57388307,0.182037841,0.036651914,-0.772133696,1756821807
-1.227517994,-1.68454711,10.40638549,0.240680904,0.10384709,-0.730594842,1756821807
-1.246660575,-1.081555815,9.86560758,0.28099801,0.200363798,-0.713490616,1756821807
-1.383051463,-0.646062102,9.410971286,0.342084533,0.302989176,-0.671951762,1756821807
-1.493121302,-0.114855485,8.930013943,0.459370659,0.368962586,-0.648738848,1756821807
-1.67497582,0.385244439,8.408378616,0.574213359,0.481361808,-0.638965057,1756821807
-2.0434705,0.890130007,8.226524099,0.689055989,0.615752143,-0.580321976,1756821807
-2.469392923,1.497906948,8.133204017,0.739146903,0.751364226,-0.624304273,1756821807
-2.99102825,2.076970017,7.987241839,0.785572661,0.916297857,-0.521678896,1756821807
-3.574876964,2.648854618,7.716852885,0.808785575,1.027475313,-0.520457183,1756821807
-4.168296969,3.17527559,7.494320383,0.750142513,1.080009759,-0.475253155,1756821807
-4.756931329,3.512663577,7.54696248,0.690277702,1.087340107,-0.427605667,1756821807
-5.139782945,3.402593737,7.532605545,0.419053553,1.040914348,-0.329867229,1756821807
-5.740381417,3.378665511,7.489534738,0.409279727,0.91018924,-0.250454748,1756821807
-6.130411501,3.376272689,7.76710216,0.376292969,0.823446341,-0.160046692,1756821807
-6.556333924,3.251845913,8.104490146,0.254119939,0.682947354,-0.070860368,1756821807
-6.867400862,3.125026316,8.111668614,0.168598806,0.514348513,-0.074525559,1756821807
-7.04925538,3.024527766,7.47278498,0.020769418,0.329867229,-0.068416907,1756821807
-6.951149653,2.782852684,6.57069086,-0.125838239,0.164933614,-0.105068821,1756821807
-6.80997312,2.352144616,6.391229165,-0.248011287,0.067195176,-0.207694181,1756821807
-6.611368844,1.789831305,7.491927561,-0.317649941,0.07574729,-0.328645498,1756821807
-6.503691827,1.366301705,9.008977089,-0.439822989,0.211359372,-0.447153372,1756821807
-6.35055118,1.198804123,10.01874823,-0.455705485,0.298102236,-0.605978334,1756821807
-5.955735451,0.863808959,10.0689975,-0.497244304,0.260228591,-0.634078152,1756821807
-5.359922624,0.540777908,9.420542576,-0.469144485,0.021991149,-0.590095838,1756821807
-4.725824635,-0.083748791,8.941978056,-0.521678896,-0.293215297,-0.529009279,1756821807
-4.113262049,-0.674775973,8.999405799,-0.510683339,-0.684169084,-0.433714319,1756821807
-3.632304707,-1.383051463,9.485148786,-0.500909513,-1.069014167,-0.361632204,1756821807
-3.192025348,-2.000399694,10.28195871,-0.494800843,-1.365894708,-0.299323967,1756821807
-2.732603409,-2.488535504,11.05962606,-0.395840674,-1.587027889,-0.320093385,1756821807
-2.117648001,-2.86181583,11.51426235,-0.289550123,-1.685988023,-0.342084533,1756821807
-1.32562372,-3.251845913,11.84925752,-0.164933614,-1.717753015,-0.420275284,1756821807
-0.667597505,-3.483949706,12.36371437,0,-1.754404912,-0.588874125,1756821807
-0.11964113,-3.462414302,12.6843526,0.10262536,-1.678657675,-0.828333246,1756821807
0.332602341,-2.998206718,12.8638143,0.250454748,-1.557706357,-1.100779159,1756821807
0.789631458,-2.416750826,12.88295688,0.360410491,-1.364672977,-1.329242828,1756821807
1.249053397,-1.756331788,12.94038462,0.432492606,-1.078788028,-1.478293824,1756821807
1.612762432,-1.088734283,13.22034487,0.500909513,-0.7562512,-1.624901499,1756821807
1.878365741,-0.818345329,13.3088793,0.475253155,-0.393397231,-1.681101136,1756821807
2.031506387,-0.464207584,12.6412818,0.398284135,-0.065973446,-1.655444761,1756821807
1.875972918,-0.22971097,11.62193937,0.343306264,0.212581103,-1.634675447,1756821807
1.617548078,-0.260817663,10.64327492,0.221133216,0.421497014,-1.528384826,1756821807
1.337587833,-0.461814762,9.769894676,0.151494579,0.626747734,-1.448972293,1756821807
1.064806057,-0.844666378,9.056833541,0.07574729,0.810007306,-1.345125255,1756821807
0.758524764,-1.304088317,8.43948531,0.098960169,0.961501885,-1.221730476,1756821807
0.404387019,-1.938186306,8.061419339,0.202807259,1.064127262,-1.108109577,1756821807
0.105284194,-2.33778768,7.958527968,0.389732022,1.097113985,-1.042136079,1756821807
-0.133998066,-2.421536471,8.260023615,0.594982742,1.097113985,-0.993266877,1756821807
-0.409172665,-2.321037922,8.860622088,0.731816555,1.056796845,-0.924850006,1756821807
-0.669990328,-1.887937031,9.509077012,0.801455158,0.998153782,-0.895528457,1756821807
-0.875773072,-1.49072848,10.10010419,0.85276789,0.908967509,-0.785572661,1756821807
-1.064806057,-0.830309442,10.12642524,0.805120401,0.7550294,-0.690277702,1756821807
-1.048056299,-0.076570323,9.688538707,0.742812147,0.49357913,-0.540004888,1756821807
-0.95712904,0.502492746,9.217152655,0.627969465,0.20402899,-0.375071256,1756821807
-0.667597505,0.859023313,8.516055633,0.51190507,-0.116064395,-0.162490153,1756821807
0.885344362,-0.473778875,7.460820867,0.544891775,-0.398284135,0.12705997,1756821807
0.086141614,1.509871061,7.147361106,0.403171057,-0.614530412,0.224798408,1756821807
0.220139679,1.643869126,6.927221427,0.301767445,-0.702495024,0.514348513,1756821807
0.287138712,1.55533469,7.082754896,0.131946891,-0.571769828,0.508239896,1756821807
0.509671214,1.124626622,7.149753929,-0.05253441,-0.294437062,0.590095838,1756821807
0.471386052,0.935593637,7.156932397,-0.180816111,0.085521133,0.51190507,1756821807
0.311066938,0.516849682,7.542176835,-0.234572251,0.529009279,0.492357365,1756821807
-0.212961211,0.327816696,8.573483376,-0.2565634,0.984714729,0.448375102,1756821807
-0.94755775,0.538385085,10.30827976,-0.248011287,1.468520015,0.390953752,1756821807
-1.890329854,0.964307508,12.04786179,-0.279776297,1.875356229,0.309097793,1756821807
-2.63210486,0.935593637,12.60538946,-0.267558974,2.183232292,0.211359372,1756821807
-3.570091319,0.65324057,11.85882881,-0.237015712,2.35305302,0.200363798,1756821807
-4.886143749,0.301495648,10.99741267,-0.164933614,2.361604976,0.142942466,1756821807
-6.410371745,0.045463629,10.60738259,-0.131946891,2.276083947,0.07696902,1756821807
-7.673782078,-0.196211453,10.29870847,-0.12950343,2.059837531,0.006108652,1756821807
-8.573483376,-0.861416136,10.04028363,-0.030543262,1.733635581,-0.107512282,1756821807
-9.090333057,-1.275374446,9.958927661,0.062308254,1.312138532,-0.224798408,1756821808
-9.317651204,-1.497906948,10.4925271,0.155159771,0.834441933,-0.2565634,1756821808
-9.300901446,-1.574477271,11.05005477,0.184481302,0.337197611,-0.339641055,1756821808
-9.128618219,-1.557727513,11.25823033,0.200363798,-0.144164196,-0.354301821,1756821808
-8.657232167,-1.438086383,11.05723323,0.135612083,-0.566882941,-0.394618961,1756821808
-7.874779177,-1.174875897,10.46381323,0.086742864,-0.951728024,-0.41783184,1756821808
-6.99422046,-0.937986459,9.616754029,0.048869219,-1.220508746,-0.364075699,1756821808
-6.195017711,-0.646062102,9.054440718,0.029321531,-1.381777134,-0.338419325,1756821808
-5.391029318,-0.445065004,8.496913053,-0.012217305,-1.408655222,-0.260228591,1756821808
-4.7856452,-0.236889437,7.925028451,-0.017104227,-1.326799245,-0.221133216,1756821808
-4.24247447,-0.169890405,7.338786914,-0.098960169,-1.169196031,-0.064751715,1756821808
-3.972085516,-0.251246373,7.142575461,-0.098960169,-0.934623797,-0.006108652,1756821808
-3.921836241,-0.344566454,7.72163853,-0.10262536,-0.620639099,0.028099801,1756821808
-4.005585032,-0.234496615,8.403592971,-0.108734012,-0.276111088,0.041538836,1756821808
-4.173082614,-0.040677984,8.709874264,-0.105068821,0.036651914,0.018325957,1756821808
-4.438685923,-0.045463629,8.618947005,-0.120951317,0.218689755,0.002443461,1756821808
-4.692325119,-0.035892339,8.106882969,-0.136833813,0.349414916,-0.009773844,1756821808
-4.788038023,-0.160319114,7.334001269,-0.157603231,0.321315115,0.009773844,1756821808
-4.740181571,-0.24885355,6.795616184,-0.162490153,0.184481302,0.065973446,1756821808
-4.567898343,-0.497707101,6.321837309,-0.140499005,-0.057421332,0.074525559,1756821808
-4.393222294,-0.887737185,5.204389155,-0.056199602,-0.342084533,0.107512282,1756821808
-4.240081647,-1.469193076,5.044070041,0.046425758,-0.519235452,0.117286126,1756821808
-4.374079713,-2.289931228,6.46062102,0.155159771,-0.548556984,0.080634211,1756821808
-4.764109797,-2.993421073,8.516055633,0.266337244,-0.414166631,-0.048869219,1756821808
-5.261816897,-3.390629624,10.37527879,0.35918876,-0.171042267,-0.3775147,1756821808
-5.525027383,-3.369094221,11.76072308,0.35796703,0.108734012,-0.744033878,1756821808
-5.31924464,-2.830709136,12.47856986,0.362853969,0.234572251,-1.044579522,1756821808
-4.965106895,-2.237289131,12.4618201,0.299323967,0.096516708,-1.24372166,1756821808
-4.359722777,-1.828116466,12.08375413,0.217468025,-0.334754151,-1.282817,1756821808
-3.842873096,-1.560120335,12.29671534,0.190589954,-0.799011714,-1.351233872,1756821808
-3.141776074,-1.20598259,12.67238849,0.166155345,-1.241278216,-1.354899046,1756821808
-2.390429777,-0.337387987,12.60538946,0.238237443,-1.557706357,-1.335351446,1756821808
-1.581655739,-0.464207584,12.77527986,0.219911486,-1.760513669,-1.274264922,1756821808
-0.894915652,0.863808959,12.38524978,0.266337244,-1.925447231,-1.285260444,1756821808
-0.258424841,0.94755775,12.46660575,0.244346095,-1.921782057,-1.136209308,1756821808
0.404387019,1.110269686,12.10768236,0.20525072,-1.727526946,-1.006705913,1756821808
0.906879765,1.402194044,11.30130114,0.171042267,-1.500285008,-0.817337724,1756821808
1.103091219,1.631905013,9.942177903,0.058643063,-1.259604086,-0.713490616,1756821808
1.124626622,1.342373479,8.705088619,-0.073303829,-1.000597295,-0.597426203,1756821808
1.222732349,0.796809926,7.846065305,-0.112399204,-0.779464044,-0.555887367,1756821808
1.179661542,0.088534436,7.539784013,-0.180816111,-0.482583538,-0.549778714,1756821808
1.239482107,-0.449850649,7.654639497,-0.12950343,-0.202807259,-0.547335271,1756821808
1.277767268,-0.82791662,8.059026517,-0.125838239,0.092851516,-0.56321775,1756821808
1.347159124,-1.026520895,8.762516361,-0.058643063,0.372627795,-0.499687747,1756821808
1.232303639,-1.13180509,9.109475638,0.006108652,0.590095838,-0.469144485,1756821808
1.146162025,-1.174875897,9.142975155,0.089186325,0.64018677,-0.428827397,1756821808
0.973878798,-1.153340493,8.939585234,0.142942466,0.557109097,-0.284663184,1756821808
0.859023313,-1.241874929,8.638089586,0.145385927,0.401949344,-0.142942466,1756821808
0.873380249,-1.203589768,7.963313613,0.193033415,0.207694181,0.015882496,1756821808
0.921236701,-1.160518961,6.932007072,0.221133216,-0.009773844,0.217468025,1756821808
1.014556782,-1.057627589,6.223731583,0.20525072,-0.138055544,0.365297412,1756821808
1.127019445,-1.045663476,5.690132143,0.141720735,-0.163711884,0.543670062,1756821808
1.203589768,-1.155733316,6.041877065,0.135612083,-0.094073247,0.66095617,1756821808
1.194018477,-1.366301705,7.604390223,0.092851516,0.133168622,0.79412481,1756821808
1.107876864,-1.572084448,10.08096161,0.05253441,0.408057962,0.823446341,1756821808
0.758524764,-1.78504566,12.52164067,-0.048869219,0.709825372,0.860098238,1756821808
0.466600407,-1.55533469,14.52921883,-0.180816111,0.92851518,0.917519588,1756821808
0.090927259,-0.94755775,14.9503556,-0.299323967,0.993266877,0.983492999,1756821808
-0.732203716,-0.457029117,13.98844092,-0.395840674,1.031140557,1.044579522,1756821808
-1.725225095,-0.251246373,12.83510043,-0.366519143,1.180191693,1.003040739,1756821808
-2.876172765,-0.167497582,12.26560865,-0.388510291,1.496619834,0.962723615,1756821808
-4.055834307,-0.363709035,11.99282687,-0.317649941,1.864360707,0.821002898,1756821808
-5.297709236,-0.579063069,11.77508001,-0.293215297,2.167349865,0.613308682,1756821808
-6.544369811,-0.830309442,11.44008485,-0.279776297,2.357939924,0.327423768,1756821808
-7.520641432,-0.894915652,10.97109162,-0.215024564,2.351831167,0.067195176,1756821808
-8.209774341,-0.813559684,10.03789081,-0.223576677,2.163684691,-0.087964594,1756821808
-8.583054666,-0.679561618,8.532805392,-0.195476876,1.751961451,-0.250454748,1756821808
-8.750552248,-0.650847747,7.300501753,-0.112399204,1.164309127,-0.244346095,1756821808
-8.815158458,-0.425922423,6.518048762,-0.035430184,0.531452775,-0.295658793,1756821808
-8.592625957,-0.05503492,6.049055533,-0.015882496,-0.087964594,-0.291993584,1756821808
-8.195417405,0.411565487,5.75234553,-0.079412481,-0.548556984,-0.302989176,1756821808
-7.783851918,0.933200814,5.87198666,-0.059864793,-0.902858822,-0.361632204,1756821808
-7.267002236,1.234696462,5.994020613,-0.096516708,-1.094670524,-0.354301821,1756821808
-6.788437716,1.423729447,6.051448355,-0.095294977,-1.131322421,-0.428827397,1756821808
-6.257231099,1.395015576,6.068198114,-0.002443461,-1.042136079,-0.433714319,1756821808
-5.793023515,1.265803155,5.898307709,0.006108652,-0.878424247,-0.463035868,1756821808
-5.484349399,0.916451056,5.146961413,0.118507856,-0.763581548,-0.397062405,1756821808
-5.312066172,0.567098956,3.976871161,0.215024564,-0.759916374,-0.320093385,1756821808
-5.225924558,0.141176533,3.22073922,0.273667627,-0.901637092,-0.240680904,1756821808
-5.103890606,-0.272781776,3.050848815,0.41050144,-1.073901071,-0.182037841,1756821808
-5.115854719,-0.744167829,4.271188341,0.568104654,-1.117883438,-0.169820536,1756821808
-5.398207786,-1.088734283,7.207181671,0.706160198,-0.996932051,-0.215024564,1756821808
-5.869593838,-1.220339526,11.07398299,0.785572661,-0.723264425,-0.375071256,1756821808
-6.187839244,-1.170090251,14.47179108,0.697608119,-0.384845083,-0.631634639,1756821808
-6.302694728,-1.552941867,15.63948851,0.581543707,-0.095294977,-0.85276789,1756821808
-6.348158358,-1.998006871,15.90509182,0.472809694,0.092851516,-1.073901071,1756821808
-5.943771338,-2.80678091,15.81416456,0.456927198,0.090408055,-1.251052008,1756821808
-5.261816897,-3.806980757,15.94816263,0.554665654,-0.151494579,-1.279151826,1756821808
-4.764109797,-4.3621156,17.40539159,0.581543707,-0.476474868,-1.292590809,1756821808
-3.905086483,-4.65643278,18.49412588,0.599869646,-0.921184762,-1.165530857,1756821808
-2.620140747,-4.630111731,18.2955216,0.482583538,-1.457524493,-1.02503187,1756821808
-1.244267752,-3.955335758,17.11586006,0.339641055,-1.995085833,-0.85276789,1756821808
0.205782744,-3.122633493,15.49591916,0.20525072,-2.541199496,-0.648738848,1756821808
1.387837108,-2.277967115,13.26102285,0.053756141,-2.962696405,-0.422718727,1756821808
2.26361018,-1.363908882,10.88255718,0.012217305,-3.182607996,-0.162490153,1756821808
2.620140747,-0.373280326,8.645268054,0.019547688,-3.214372848,-0.009773844,1756821808
2.739781877,0.504885569,6.556333924,0.07574729,-3.036000181,0.111177473,1756821808
2.682354135,1.299302672,4.828716007,0.083077672,-2.73789791,0.158824962,1756821808
2.605783811,2.069791549,3.64426882,-0.035430184,-2.263866695,0.175929189,1756821808
2.610569457,2.914457927,2.959921556,-0.196698607,-1.715309571,0.162490153,1756821808
2.598605344,3.610769303,2.780459861,-0.415388345,-1.075122784,0.17959438,1756821808
2.476571391,3.440878899,2.883351233,-0.590095838,-0.348193203,0.120951317,1756821808
2.356930261,3.235096155,2.938386153,-0.65973444,0.372627795,0.208915911,1756821808
1.957328887,2.837887604,3.206382284,-0.580321976,1.021366678,0.260228591,1756821808
1.392622753,2.572284295,3.196810994,-0.399505848,1.541823791,0.299323967,1756821808
0.803988394,2.215753728,2.572284295,-0.270002435,1.898569143,0.283441471,1756821808
0.100498549,1.679761465,2.416750826,-0.072082098,2.201558301,0.322536846,1756821808
-0.418743955,1.115055332,2.866601475,0.163711884,2.386039743,0.332310707,1756821808
-0.916451056,0.677168796,4.019941968,0.360410491,2.474004215,0.346971438,1756821808
-1.342373479,0.258424841,6.561119569,0.540004888,2.528981981,0.35796703,1756821808
-1.909472435,0.014356936,10.15513911,0.686612528,2.575407809,0.305432619,1756821808
-2.481357036,0.050249275,13.83051463,0.746477321,2.552194895,0.30665435,1756821808
-2.993421073,0.220139679,16.34297836,0.653625822,2.299296844,0.274889357,1756821808
-3.086741154,0.24885355,16.80957876,0.524122392,1.71286611,0.482583538,1756821808
-2.840280426,-0.057427742,16.80479312,0.438601224,0.87109383,0.764803278,1756821808
-2.859423007,-0.643669279,17.09193183,0.345749707,0.059864793,1.153313605,1756821808
-3.464807125,-1.234696462,17.70688724,0.246789556,-0.288328392,1.298699566,1756821808
-3.694518094,-2.057827436,17.9461695,0.059864793,-0.20525072,1.210734954,1756821808
-3.766302772,-3.125026316,17.16132369,-0.20525072,0.222354947,1.058018575,1756821808
-3.900300838,-4.493720843,15.81655739,-0.366519143,0.827111515,0.81367248,1756821808
-4.462614149,-5.611168997,14.24686576,-0.467922755,1.458746224,0.587652324,1756821808
-5.063212622,-6.412764568,12.97627696,-0.469144485,1.996307546,0.346971438,1756821808
-5.919843112,-6.628118602,12.2177522,-0.444709893,2.338392062,0.293215297,1756821808
-6.987041992,-6.139982792,11.28455138,-0.477696634,2.453234762,0.172263997,1756821808
-8.097311678,-4.89571504,9.535398061,-0.439822989,2.316401001,0.141720735,1756821808
-8.946763701,-3.297309543,7.6019974,-0.382401639,1.96209911,0.057421332,1756821809
-9.068797654,-1.713260982,6.178267953,-0.312763002,1.330464541,0.05253441,1756821809
-8.913264185,-0.445065004,4.907679153,-0.232128791,0.56443948,0.054977871,1756821809
-8.556733618,0.476171697,4.072584065,-0.217468025,-0.136833813,0.042760567,1756821809
-7.814958612,0.859023313,3.775874063,-0.145385927,-0.73792519,-0.065973446,1756821809
-6.855436749,0.854237668,3.529413335,-0.139277274,-1.160643953,-0.193033415,1756821809
-5.73320295,0.861416136,3.060420105,-0.042760567,-1.440420214,-0.316428176,1756821809
-4.713860522,1.014556782,2.352144616,0.05009095,-1.692096657,-0.41050144,1756821809
-3.902693661,1.383051463,1.593619852,0.124616509,-1.92300377,-0.514348513,1756821809
-3.189632526,1.861615983,0.988235734,0.186924763,-2.13558489,-0.557109097,1756821809
-2.373680019,2.275574293,0.933200814,0.141720735,-2.291966496,-0.56321775,1756821809
-1.524227996,2.361715906,1.359123237,0.158824962,-2.350609314,-0.557109097,1756821809
-0.923629524,2.493321149,2.773281393,0.05009095,-2.117258881,-0.530231009,1756821809
-0.485742988,2.708675183,5.08953367,-0.059864793,-1.616349438,-0.531452775,1756821809
-0.284745889,2.775674216,7.917849983,-0.188146493,-0.935845527,-0.498466017,1756821809
-0.461814762,2.68713978,10.15992476,-0.287106679,-0.138055544,-0.450818546,1756821809
-0.732203716,2.067398726,10.70070267,-0.2565634,0.530231009,-0.400727579,1756821809
-1.170090251,1.318445253,11.31565808,-0.111177473,1.001819026,-0.28099801,1756821809
-2.110469533,0.660419038,12.65563873,0.114842665,1.291369079,-0.277332818,1756821809
-3.668197046,0.035892339,15.67059521,0.41050144,1.387885769,-0.124616509,1756821809
-5.266602543,-1.134197912,16.96511223,0.684169084,1.30236474,0.07819075,1756821809
-7.30768022,-2.170290098,17.70210159,1.088561837,1.215621859,0.262672052,1756821809
-8.468199181,-1.842473402,19.41296975,1.276708383,0.965167059,0.270002435,1756821809
-8.848657975,-1.136590735,20.44427629,1.177748232,0.702495024,0.195476876,1756821809
-8.726624022,-0.619741053,20.73620065,0.977384381,0.296880506,0.133168622,1756821809
-8.26480926,-0.299102825,19.90828403,0.554665654,-0.17959438,-0.004886922,1756821809
-7.223931429,-0.425922423,18.07538192,0.02687807,-0.647517118,-0.12705997,1756821809
-5.900700532,-0.820738152,15.76152247,-0.43004911,-1.10933129,-0.238237443,1756821809
-4.333401729,-1.567298803,13.40219938,-0.745255608,-1.618792881,-0.333532438,1756821809
-2.574677118,-2.268395825,11.34915759,-0.901637092,-2.034181296,-0.387288578,1756821809
-1.031306541,-2.684746957,9.667003304,-0.868650369,-2.35305302,-0.427605667,1756821809
0.334995164,-2.723032119,8.121239904,-0.733038286,-2.528981981,-0.345749707,1756821809
1.529013641,-2.26361018,6.654439651,-0.531452775,-2.637716186,-0.193033415,1756821809
2.32821639,-1.56490598,5.62313311,-0.386066848,-2.656041934,-0.057421332,1756821809
2.854637362,-0.825523797,4.788038023,-0.224798408,-2.580294696,0.117286126,1756821809
3.115455025,-0.425922423,3.885943902,-0.252898209,-2.409252377,0.279776297,1756821809
3.117847848,-0.026321049,2.895315346,-0.257785131,-2.216219137,0.305432619,1756821809
3.041277525,0.270388954,1.91425808,-0.310319558,-1.896125682,0.412944901,1756821809
2.794816797,0.356530567,1.050449121,-0.345749707,-1.514945843,0.445931606,1756821809
2.510070907,0.459421939,0.600598473,-0.345749707,-1.073901071,0.454483755,1756821809
2.222932195,0.567098956,0.535992262,-0.356745317,-0.521678896,0.450818546,1756821809
2.014756629,0.490528633,0.8470592,-0.310319558,0.079412481,0.455705485,1756821809
1.720439449,0.337387987,1.351944769,-0.307876063,0.712268885,0.422718727,1756821809
1.392622753,-0.007178468,2.057827436,-0.218689755,1.43675504,0.439822989,1756821809
0.940379282,-0.258424841,3.232703333,-0.05253441,2.122145768,0.295658793,1756821809
0.449850649,-0.136390888,5.201996332,0.095294977,2.825862662,0.223576677,1756821809
-0.236889437,0.315852583,7.992027484,0.172263997,3.541796529,-0.02687807,1756821809
-0.906879765,0.911665411,10.60977541,0.10140363,4.199087578,-0.215024564,1756821809
-1.799402595,1.265803155,12.52403349,-0.020769418,4.725653657,-0.365297412,1756821809
-3.077169864,1.136590735,13.98126245,-0.058643063,4.921130202,-0.452040276,1756821809
-4.42672181,0.390030084,16.051054,-0.042760567,4.614476271,-0.361632204,1756821809
-5.6327044,-0.629312344,19.08036741,0.092851516,3.707951944,-0.123394778,1756821809
-7.278966349,-1.861615983,17.45564087,0.379958178,2.452013153,0.389732022,1756821809
-8.50409152,-1.31605243,17.28575046,0.618195586,1.452637589,0.598647916,1756821809
-9.09272588,-0.861416136,19.01815402,0.43004911,0.62308256,0.745255608,1756821809
-8.575876198,-1.399801221,18.85783491,0.100181899,0.089186325,0.68050391,1756821809
-7.293323285,-2.438286229,17.72124418,-0.277332818,-0.216246294,0.719599251,1756821809
-6.551548279,-3.364308576,15.62991722,-0.587652324,-0.384845083,0.68050391,1756821809
-6.041877065,-4.237688825,13.40937785,-0.772133696,-0.289550123,0.502131226,1756821809
-5.802594805,-4.323830438,11.48076283,-0.844215742,-0.084299403,0.412944901,1756821809
-5.740381417,-3.967299871,9.652646368,-0.839328837,0.083077672,0.238237443,1756821809
-6.001199081,-3.201596639,7.403393124,-0.7550294,0.221133216,0.12950343,1756821809
-6.252445454,-2.294716873,5.443671415,-0.56443948,0.283441471,0.045204028,1756821809
-6.453442552,-1.383051463,3.998406565,-0.405614518,0.254119939,-0.169820536,1756821809
-6.3314086,-0.7728817,3.17527559,-0.191811685,0.17837265,-0.320093385,1756821809
-5.912664645,-0.435493713,2.366501551,-0.029321531,0.02687807,-0.478918364,1756821809
-5.347958511,-0.466600407,1.703689691,0.157603231,-0.276111088,-0.60231309,1756821809
-4.699503586,-0.126819598,0.933200814,0.294437062,-0.594982742,-0.651182361,1756821809
-4.273581164,0.323031051,0.361316213,0.366519143,-1.006705913,-0.709825372,1756821809
-3.766302772,0.622133876,0.464207584,0.364075699,-1.431868136,-0.764803278,1756821809
-3.170489945,1.06719888,0.619741053,0.287106679,-1.793500374,-0.842994011,1756821809
-2.498106794,1.450050496,1.083948638,0.233350521,-2.065946288,-0.937067258,1756821809
-1.878365741,1.792224127,1.959721709,0.190589954,-2.11603715,-1.058018575,1756821809
-1.263410333,2.026720742,3.467199947,0.062308254,-1.853365168,-1.196074119,1756821809
-0.705882667,2.175075743,5.611168997,-0.048869219,-1.346346968,-1.257160643,1756821809
-0.313459761,2.210968082,8.00638442,-0.174707458,-0.638965057,-1.315803706,1756821809
-0.382851616,2.428714939,10.89930694,-0.293215297,0.085521133,-1.276708383,1756821809
-0.681954441,2.636890505,12.85185018,-0.368962586,0.711047172,-1.167974301,1756821809
-1.191625655,2.646461796,13.76590842,-0.366519143,1.07145761,-0.993266877,1756821809
-2.292324051,2.629712037,15.19920916,-0.349414916,1.081231489,-0.791681366,1756821809
-3.373879866,2.079362839,17.2690007,-0.432492606,0.919963031,-0.518013722,1756821809
-4.211367776,-0.433100891,16.41954868,-0.263893783,0.576656802,-0.196698607,1756821809
-5.747559885,-2.378465664,16.83589981,0.040317106,0.222354947,-0.017104227,1756821809
-6.259623922,-2.849851717,17.74995805,0.248011287,0.162490153,0.053756141,1756821809
-6.259623922,-3.321237769,19.60439556,0.405614518,0.190589954,0.109955743,1756821809
-6.192624889,-3.646661642,21.69332969,0.339641055,0.238237443,0.070860368,1756821809
-5.905486177,-3.809373579,20.75295041,0.123394778,0.15271631,0.032986723,1756821809
-5.201996332,-4.311866325,17.91745563,-0.195476876,-0.062308254,-0.074525559,1756821809
-4.192225195,-5.118247541,14.67039536,-0.448375102,-0.35796703,-0.15393804,1756821809
-3.108276557,-5.881557951,11.84686469,-0.586430594,-0.742812147,-0.193033415,1756821809
-2.120040824,-6.056234001,9.509077012,-0.591317568,-1.105666046,-0.241902634,1756821809
-1.363908882,-5.324030285,7.506284496,-0.51190507,-1.411098665,-0.191811685,1756821809
-0.705882667,-4.266402696,5.967699564,-0.368962586,-1.634675447,-0.123394778,1756821809
-0.11006984,-2.933600508,4.65643278,-0.302989176,-1.800830722,-0.021991149,1756821809
0.344566454,-1.952543242,3.586841077,-0.173485728,-1.915673422,0.07819075,1756821809
0.78245299,-1.213161058,2.624926392,-0.174707458,-2.03784647,0.20402899,1756821809
1.014556782,-0.514456859,1.421336624,-0.139277274,-2.07694181,0.285884914,1756821809
1.256231865,0.035892339,0.4235296,-0.089186325,-2.064724557,0.337197611,1756821809
1.270588801,0.497707101,-0.272781776,0,-1.935221022,0.35796703,1756821809
0.993021379,1.203589768,-0.684347264,0.040317106,-1.676214231,0.376292969,1756821809
0.454636294,2.014756629,-0.811166861,-0.048869219,-1.200961023,0.360410491,1756821809
0.155533469,1.926222193,-0.131605243,-0.221133216,-0.516792009,0.405614518,1756821809
0.442672181,1.945364774,1.06719888,-0.248011287,0.118507856,0.216246294,1756821809
0.46899323,0.993021379,3.084348331,-0.106290551,0.896750187,0.100181899,1756821809
0.449850649,0.545563553,5.627918755,0.221133216,1.596801698,-0.17959438,1756821809
0.11964113,0.54317073,9.662217659,0.467922755,2.33472701,-0.426383936,1756821809
-0.179461695,0.937986459,13.33280753,0.647517118,2.9382619,-0.675616936,1756821809
-1.01216396,1.670190175,16.66361659,0.475253155,3.385415168,-0.785572661,1756821809
-2.845066071,1.361516059,17.46760498,0.381179909,3.67374363,-0.652404092,1756821809
-4.386043826,-0.222532502,17.96291926,0.521678896,3.409849672,-0.498466017,1756821809
-4.18743955,-1.706082514,22.3298205,0.657290996,2.398256995,0.067195176,1756821809
-4.967499718,-2.627319215,19.69293,0.891863213,1.065348993,0.719599251,1756821809
-6.173482308,-3.206382284,20.83191356,0.940732502,0.273667627,0.806342132,1756821809
-6.151946905,-3.900300838,21.67657993,0.554665654,-0.004886922,0.610865238,1756821809
-5.50349198,-4.90528633,20.94437622,0.135612083,0.056199602,0.510683339,1756821809
-4.66600407,-5.783452224,18.45344789,-0.224798408,0.293215297,0.439822989,1756821809
-4.285545277,-6.149554082,15.32363593,-0.561996037,0.549778714,0.390953752,1756821809
-4.500899311,-5.532205851,12.59342534,-0.745255608,0.77579887,0.364075699,1756821809
-5.312066172,-4.749752861,10.28195871,-0.850324429,0.926071719,0.224798408,1756821809
-5.800201982,-3.737588901,7.814958612,-0.790459636,0.984714729,0.054977871,1756821809
-5.970092387,-2.768495748,5.343172866,-0.731816555,0.836885394,-0.042760567,1756821809
-5.915057467,-1.983649935,3.2398818,-0.481361808,0.609643508,-0.147829388,1756821809
-5.912664645,-1.299302672,1.78504566,-0.250454748,0.346971438,-0.180816111,1756821809
-5.517848916,-0.713061135,0.705882667,-0.069638637,0.064751715,-0.235793982,1756821809
-5.178068106,-0.332602341,0.078963146,0.112399204,-0.246789556,-0.257785131,1756821809
-4.792823668,-0.11006984,-0.179461695,0.246789556,-0.530231009,-0.277332818,1756821810
-4.244867292,0.023928226,-0.193818631,0.343306264,-0.802676958,-0.381179909,1756821810
-3.701696562,0.205782744,0.193818631,0.43615778,-1.076344515,-0.463035868,1756821810
-3.096312444,0.150747824,1.07677017,0.443488163,-1.290147348,-0.526565835,1756821810
-2.469392923,-0.052642097,2.014756629,0.504574687,-1.346346968,-0.453261989,1756821810
-1.981257113,-0.208175566,3.129811961,0.557109097,-1.240056486,-0.348193203,1756821810
-1.895115499,-0.339780809,4.591826569,0.645073674,-0.934623797,-0.260228591,1756821810
-2.194218324,-0.602991295,6.927221427,0.724486138,-0.371406082,-0.136833813,1756821810
-2.938386153,-0.799202748,10.47577734,0.840550568,0.364075699,-0.169820536,1756821810
-3.955335758,-1.064806057,14.52443318,0.983492999,1.297477696,-0.175929189,1756821810
-5.620740287,-1.538584932,16.85025675,1.177748232,1.937664483,-0.07819075,1756821810
-7.755138047,-1.584048561,16.97468352,1.41598557,2.125811081,0.045204028,1756821810
-10.0689975,-1.648654771,16.11805303,1.469741746,1.901012586,0.195476876,1756821810
-12.64846026,-1.926222193,16.75693667,1.276708383,1.572367053,0.273667627,1756821810
-15.75673682,-1.373480172,18.60180289,0.873537273,1.1398745,0.042760567,1756821810
-15.35474262,-3.05563446,19.82214242,0.597426203,0.734260016,-0.219911486,1756821810
-14.41675616,-4.486542375,20.06621032,0.393397231,0.307876063,-0.510683339,1756821810
-12.73938752,-5.462813996,19.38425588,0.188146493,-0.392175465,-0.684169084,1756821810
-10.64566775,-5.673382385,17.98445466,0.006108652,-1.280373557,-0.759916374,1756821810
-8.106882969,-5.247459962,15.56770384,-0.191811685,-2.277305538,-0.762359817,1756821810
-5.14456859,-4.448257213,13.06002575,-0.372627795,-3.233920449,-0.769690165,1756821810
-2.309073809,-3.558127206,10.53320509,-0.448375102,-4.138001054,-0.625526004,1756821810
0.23928226,-2.268395825,8.032705468,-0.329867229,-4.853934921,-0.432492606,1756821810
1.971685822,-1.091127106,6.003591903,-0.207694181,-5.316971295,-0.12705997,1756821810
2.684746957,-0.002392823,4.594219392,-0.013439035,-5.495343421,0.215024564,1756821810
3.218346397,1.428515092,3.160918655,0.05009095,-5.422039924,0.469144485,1756821810
3.464807125,2.445464697,1.725225095,-0.02565634,-5.054298911,0.676838666,1756821810
3.735196079,3.455235834,0.325423874,-0.213802833,-4.524067797,0.780685774,1756821810
3.785445353,4.161118501,-0.710668312,-0.355523586,-3.813020834,0.777020583,1756821810
3.749553014,4.474578262,-1.495514125,-0.461814103,-2.989574354,0.840550568,1756821810
3.366701398,4.429114633,-1.80418824,-0.56321775,-2.036624739,0.788016192,1756821810
2.88095841,4.12283334,-1.519442351,-0.613308682,-0.981049555,0.649960648,1756821810
2.438286229,3.510270754,-0.753739119,-0.689055989,0.05009095,0.467922755,1756821810
2.086541307,1.840080579,0.524028149,-0.560774306,1.067792436,0.28221974,1756821810
1.653440417,0.464207584,1.603191142,-0.221133216,2.036624739,0.144164196,1756821810
1.129412267,-0.866201781,3.373879866,0.248011287,2.901609881,0.007330383,1756821810
0.667597505,-1.399801221,6.436692794,0.758694643,3.644421976,-0.081855942,1756821810
0.256032018,-0.930807991,11.32522937,1.10933129,4.360356105,-0.254119939,1756821810
-0.636490812,0.332602341,15.06999673,1.22417392,4.897917567,-0.221133216,1756821810
-2.335394858,0.741775006,16.85504239,1.233947729,5.214345848,-0.107512282,1756821810
-4.271188341,0.332602341,19.71685822,1.187522041,5.079955286,0.428827397,1756821810
-4.474578262,-0.17467605,24.83749859,0.929736893,3.926641681,1.080009759,1756821810
-6.704688925,-2.170290098,23.26780696,0.791681366,2.384817872,1.590693063,1756821810
-9.346365076,-4.48175673,22.72942188,0.779464044,1.253495469,1.543045662,1756821810
-10.13838936,-5.692524965,22.62892333,0.527787566,0.438601224,1.203404467,1756821810
-9.951749193,-6.680760699,20.46341888,0.048869219,-0.015882496,0.888198039,1756821810
-9.087940235,-7.652246675,16.91486296,-0.294437062,-0.145385927,0.682947354,1756821810
-8.700302974,-8.36530781,13.55055438,-0.571769828,-0.048869219,0.624304273,1756821810
-8.941978056,-8.243273857,11.10987533,-0.805120401,0.134390352,0.565661211,1756821810
-9.504291367,-7.441678286,8.934799588,-0.94806285,0.211359372,0.50701813,1756821810
-9.808179837,-6.084947872,6.967899411,-1.029918757,0.019547688,0.43615778,1756821810
-9.245866526,-5.065605444,5.603990529,-0.846659185,-0.334754151,0.311541271,1756821810
-8.271987728,-4.438685923,4.728217458,-0.540004888,-0.758694643,0.307876063,1756821810
-7.326822801,-3.629911884,3.881158257,-0.130725161,-0.990823416,0.346971438,1756821810
-6.704688925,-2.419143649,2.945564621,0.408057962,-1.092227081,0.414166631,1756821810
-6.628118602,-1.031306541,1.971685822,0.888198039,-1.099557429,0.531452775,1756821810
-6.695117635,0.021535403,1.150947671,1.458746224,-1.121548612,0.811229036,1756821810
-6.630511425,0.667597505,0.509671214,1.918116883,-1.299921279,0.970054033,1756821810
-6.27637368,1.43569356,0.143569356,2.283414295,-1.740965929,0.908967509,1756821810
-5.922235935,2.600998166,-0.074177501,2.310292244,-2.520430043,0.559552576,1756821810
-5.625525933,3.94815729,-0.504885569,1.940108066,-3.331658992,0.324980324,1756821810
-5.501099157,5.450849883,-1.103091219,1.375668516,-4.020714911,0.180816111,1756821810
-5.467599641,6.518048762,-1.395015576,0.673173492,-4.508185248,0.15271631,1756821810
-5.496313512,6.805187474,-1.194018477,0.056199602,-4.646240845,0.211359372,1756821810
-5.51306327,6.738188442,-0.241675083,-0.559552576,-4.459316239,0.252898209,1756821810
-4.835894475,5.874379483,2.191825502,-1.12887896,-4.256509067,0.047647489,1756821810
-3.041277525,3.960121403,5.647061336,-1.573588923,-4.11601001,-0.368962586,1756821810
-0.244067905,1.825723644,9.418149754,-1.481959138,-4.080579844,-0.81367248,1756821810
2.486142681,0.011964113,12.59821099,-0.857654777,-4.151440176,-1.133765865,1756821810
4.823930362,-1.105484041,16.39322763,0,-4.205196335,-1.178969962,1756821810
6.565905214,-1.014556782,19.8197496,0.570548115,-4.197865987,-1.050688227,1756821810
9.655039191,-1.464407431,24.19861495,0.996932051,-3.638313481,-1.49417639,1756821810
10.32742234,-2.943171798,22.69831518,0.994488608,-2.3078488,-2.254092624,1756821810
9.544969351,-1.73001074,21.24587187,0.723264425,-1.386664038,-2.174680213,1756821810
10.38963573,-2.699103893,21.52583211,0.614530412,-0.940732502,-1.530828269,1756821810
10.43031371,-3.577269787,21.41097662,0.366519143,-0.709825372,-0.875980734,1756821810
9.052047896,-4.405186407,20.21695815,0.113620934,-0.71715579,-0.216246294,1756821810
7.860422241,-4.520041891,17.43410546,-0.164933614,-0.806342132,0.174707458,1756821810
7.228717075,-4.91485762,14.77328673,-0.323758559,-0.806342132,0.481361808,1756821810
7.460820867,-4.299902212,12.2919297,-0.261450322,-0.400727579,0.614530412,1756821810
7.042076912,-3.567698497,9.901499919,-0.122173048,-0.008552113,0.774577139,1756821810
6.601797553,-3.014956476,8.114061437,0.1282817,0.277332818,1.0054842,1756821810
5.970092387,-2.3928226,6.738188442,0.387288578,0.626747734,1.076344515,1756821810
5.053641331,-1.414158157,5.412564721,0.577878533,0.966388789,1.153313605,1756821810
3.964907048,-0.052642097,4.383651003,0.70005158,1.178969962,1.176526519,1756821810
2.835494781,0.954736217,2.873779943,0.669508319,1.279151826,1.269378017,1756821810
1.390229931,2.08893413,1.868794451,0.525344105,1.226617381,1.37933369,1756821810
0.964307508,2.395215423,1.100698396,0.356745317,1.156978779,1.369559881,1756821810
0.215354034,2.86181583,0.253639196,0.069638637,1.230282555,1.47462865,1756821810
-0.614955408,3.342773172,-0.437886536,-0.191811685,1.351233872,1.485624312,1756821810
-1.344766301,3.436093254,-1.016949605,-0.580321976,1.495398103,1.522276191,1756821810
-1.847259047,3.117847848,-1.473978722,-0.993266877,1.499063277,1.468520015,1756821810
-1.986042758,2.51246373,-1.50029977,-1.273043191,1.429424692,1.259604086,1756821810
-1.85922316,1.682154288,-0.96670033,-1.309695088,1.287703905,1.017701504,1756821810
-1.655833239,0.705882667,0.58863436,-1.138652769,1.209513224,0.745255608,1756821810
-1.258624688,-0.00957129,3.215953574,-0.979827825,1.192408945,0.458148929,1756821810
-0.602991295,-0.351744922,7.271787881,-0.768468452,1.310916819,0.05131268,1756821810
0.334995164,-0.100498549,12.90209946,-0.79534654,1.288925618,-0.293215297,1756821810
1.627119368,0.023928226,18.10888144,-0.824668072,1.369559881,-0.599869646,1756821810
3.05563446,-0.514456859,19.86042758,-0.607200064,1.163087396,-0.671951762,1756821810
3.962514226,-1.873580096,19.10429564,-0.17837265,0.675616936,-0.593761012,1756821810
3.976871161,-2.715853651,17.61356716,0.190589954,0.195476876,-0.355523586,1756821810
3.649054465,-3.457628657,17.72842264,0.471587964,0.029321531,-0.084299403,1756821810
2.56749865,-4.419543342,18.27637902,0.560774306,0.290771853,0.100181899,1756821810
1.79461695,-4.84068012,18.50130434,0.465479312,0.800233427,0.224798408,1756821810
1.411765334,-4.826323184,18.24527233,0.277332818,1.324355784,0.488692191,1756821810
-0.145962179,-5.31924464,17.20200167,0.053756141,1.916895152,0.643851944,1756821810
-0.90209412,-6.094519162,15.41695601,-0.238237443,2.328618253,0.234572251,1756821810
-2.301895341,-5.828915854,13.56969696,-0.164933614,2.747671719,0.172263997,1756821810
-3.342773172,-4.871786814,11.58604703,0.147829388,3.029891686,0.200363798,1756821810
-4.474578262,-3.089133977,9.671788949,0.399505848,3.053104338,0.133168622,1756821810
-5.675775207,-1.61036961,7.659425143,0.590095838,2.839301505,0.009773844,1756821810
-6.685546344,-0.234496615,5.706881901,0.663399614,2.381152576,-0.042760567,1756821810
-7.41775006,1.313659607,3.481556883,0.68050391,1.776396095,-0.036651914,1756821810
-7.652246675,2.251646067,1.631905013,0.828333246,1.100779159,0.087964594,1756821810
-7.262216591,2.639283328,0.574277424,1.12887896,0.353080108,0.287106679,1756821810
-6.659225296,2.909672282,0.41395831,1.419650744,-0.361632204,0.405614518,1756821810
-5.922235935,2.986242605,0.646062102,1.505171912,-0.996932051,0.569326385,1756821810
-5.510670448,3.036491879,0.741775006,1.412320396,-1.49295466,0.664621414,1756821810
-5.357529801,3.292523898,1.31605243,1.192408945,-1.787391757,0.875980734,1756821810
-5.053641331,3.433700431,2.63210486,0.81489421,-1.929112405,0.907745709,1756821810
-4.505684956,3.527020512,4.347758664,0.510683339,-1.985312024,0.856433064,1756821810
-3.974478339,3.421736318,6.427121504,0.271224166,-1.96209911,0.715934059,1756821810
-3.29491672,2.883351233,8.855836443,0.141720735,-1.98164685,0.491135634,1756821810
-2.531606311,1.521835174,10.21256686,0.084299403,-2.03784647,0.215024564,1756821810
-1.883151386,0.033499516,11.18405283,0.059864793,-2.182010578,-0.05253441,1756821811
-1.201196945,-1.258624688,12.64367462,0.003665191,-2.348165853,-0.406836231,1756821811
-0.155533469,-3.010170831,14.35932842,-0.133168622,-2.46911731,-0.574213359,1756821811
0.741775006,-5.056034154,15.58206077,-0.138055544,-2.494773668,-0.711047172,1756821811
1.801795418,-6.845865459,18.01556136,0.227241869,-2.298074991,-0.895528457,1756821811
3.2398818,-7.412964415,22.25325018,0.686612528,-1.842369523,-1.176526519,1756821811
4.352544309,-7.240681188,25.80419892,0.915076127,-1.26326926,-1.282817,1756821811
4.929214556,-6.776473603,27.38346183,0.95661498,-0.753807686,-1.314581993,1756821811
5.280959478,-5.462813996,26.32583425,0.726929668,-0.51190507,-1.233947729,1756821811
4.79521649,-3.668197046,23.34916293,0.339641055,-0.596204472,-1.24372166,1756821811
4.697110764,-2.100898243,20.56391742,-0.108734012,-0.838107107,-1.042136079,1756821811
4.783252377,-1.160518961,17.36949925,-0.428827397,-1.171639475,-0.866206925,1756821811
4.857429878,-0.282353067,14.4837552,-0.62308256,-1.540602078,-0.654847535,1756821811
4.881358104,0.466600407,11.8899355,-0.667064858,-1.826487097,-0.35918876,1756821811
4.859822701,1.043270654,9.698109998,-0.609643508,-1.98164685,-0.097738438,1756821811
5.297709236,2.574677118,7.819744257,-0.504574687,-2.007303208,0.094073247,1756821811
4.77607391,3.062812928,6.678367877,-0.49357913,-1.94255151,0.156381501,1756821811
6.362515293,4.950749959,5.067998267,-0.332310707,-1.742187659,0.827111515,1756821811
5.721238837,5.716453191,3.751945837,-0.327423768,-1.402546604,1.112996464,1756821811
5.606383352,5.934200048,2.775674216,-0.415388345,-1.036027461,1.325577515,1756821811
5.283352301,5.749952708,2.060220259,-0.467922755,-0.561996037,1.503950182,1756821811
4.749752861,5.113461896,1.751546143,-0.463035868,0.047647489,1.62734496,1756821811
3.881158257,4.211367776,1.529013641,-0.399505848,0.768468452,1.791056931,1756821811
2.600998166,3.462414302,1.282552914,-0.272445896,1.483180851,1.848478281,1756821811
1.332802188,2.634497683,1.052841944,-0.036651914,2.127032812,1.814269705,1756821811
0.320638228,2.203789615,0.859023313,0.151494579,2.752558885,1.740965929,1756821811
-0.581455892,2.184647034,0.610169763,0.415388345,3.202155596,1.595579967,1756821811
-1.299302672,2.266003002,0.464207584,0.608421795,3.524692372,1.457524493,1756821811
-1.921436548,2.481357036,0.404387019,0.779464044,3.678630534,1.356120776,1756821811
-2.514856553,2.50289244,0.693918554,0.923628205,3.711617257,1.222952207,1756821811
-3.227917687,2.404786713,1.715653804,0.950506293,3.60899181,1.087340107,1756821811
-3.998406565,2.27318147,3.912264951,0.845437472,3.406184638,0.973719207,1756821811
-4.867001168,2.68713978,8.216952808,0.570548115,3.144734124,0.819781167,1756821811
-5.793023515,3.299702365,13.11506067,0.043982297,2.882062281,0.624304273,1756821811
-6.195017711,2.679961312,15.23988714,-0.351858377,2.444682805,0.448375102,1756821811
-5.86241537,0.777667345,15.96491239,-0.568104654,1.745852833,0.334754151,1756821811
-4.761716974,-1.040877831,17.68535184,-0.542448332,0.762359817,0.345749707,1756821811
-3.352344463,-1.818545176,18.02991829,-0.124616509,-0.087964594,0.498466017,1756821811
-3.34995164,-5.903093354,19.75514339,0.265115513,-0.431270841,0.842994011,1756821811
-2.959921556,-8.939585234,20.6883442,0.317649941,-0.5131268,0.064751715,1756821811
-2.699103893,-9.870393225,21.34397759,0.378736465,-0.270002435,0.028099801,1756821811
-2.842673249,-9.166903381,20.83191356,0.533896218,0.287106679,0.120951317,1756821811
-3.184846881,-7.968099258,19.08754588,0.459370659,0.791681366,0.019547688,1756821811
-3.962514226,-6.436692794,17.26660788,0.368962586,1.252273738,0.007330383,1756821811
-4.608576328,-4.764109797,15.85962819,0.23090706,1.534493443,-0.029321531,1756821811
-5.146961413,-3.041277525,14.66560972,0.007330383,1.591914793,-0.069638637,1756821811
-5.766702466,-1.38065864,13.42852043,-0.156381501,1.483180851,-0.10140363,1756821811
-6.333801422,0.220139679,12.20339526,-0.299323967,1.178969962,-0.120951317,1756821811
-6.69990328,1.263410333,10.54756202,-0.389732022,0.735481729,-0.069638637,1756821811
-6.778866426,1.878365741,8.673981925,-0.422718727,0.217468025,-0.021991149,1756821811
-6.506084649,2.316252277,6.795616184,-0.422718727,-0.371406082,0.058643063,1756821811
-6.008377549,2.51246373,5.075176735,-0.3775147,-0.884532865,0.156381501,1756821811
-5.307280527,2.545963246,3.833301805,-0.375071256,-1.362229534,0.318871654,1756821811
-4.67557536,2.541177601,2.986242605,-0.389732022,-1.688431483,0.469144485,1756821811
-4.055834307,2.428714939,2.45742881,-0.382401639,-1.872912785,0.555887367,1756821811
-3.467199947,2.323430745,2.084148485,-0.339641055,-1.991420642,0.596204472,1756821811
-2.938386153,2.266003002,1.97886429,-0.238237443,-2.003638034,0.579100246,1756821811
-2.385644132,2.268395825,1.907079612,-0.157603231,-1.965764284,0.570548115,1756821811
-1.73001074,2.261217357,1.667797352,-0.083077672,-1.915673422,0.532674488,1756821811
-1.182054364,2.313859454,1.375872995,0.047647489,-1.86680415,0.598647916,1756821811
-0.744167829,2.09850542,1.660618884,0.125838239,-1.776396095,0.581543707,1756821811
-0.430708068,1.962114532,2.732603409,0.147829388,-1.618792881,0.615752143,1756821811
-0.313459761,1.990828403,4.4362931,0.118507856,-1.335351446,0.68050391,1756821811
-0.311066938,1.892722677,6.551548279,0.023212879,-0.880867691,0.690277702,1756821811
-0.485742988,1.562513158,8.85344362,-0.188146493,-0.355523586,0.60231309,1756821811
-0.842273555,0.820738152,10.70070267,-0.376292969,0.171042267,0.499687747,1756821811
-1.42612227,-0.346959277,12.34696462,-0.604756621,0.729373112,0.260228591,1756821811
-2.26361018,-1.600798319,14.21815189,-0.853989603,1.209513224,0.032986723,1756821811
-2.857030184,-2.756531635,15.61556029,-1.037249174,1.604132185,-0.215024564,1756821811
-2.993421073,-3.950550113,17.16610933,-1.230282555,1.821600193,-0.376292969,1756821811
-2.297109696,-5.596812061,17.30250022,-1.325577515,1.805717627,-0.427605667,1756821811
-0.973878798,-8.13559684,15.30210053,-0.923628205,1.611462533,-0.302989176,1756821811
-0.421136778,-9.903892741,14.94078431,-0.234572251,1.293812522,-0.081855942,1756821811
-0.160319114,-9.504291367,15.12742448,0.342084533,0.895528457,0.106290551,1756821811
-0.449850649,-7.680960546,14.33779302,0.6414085,0.471587964,0.387288578,1756821811
-0.492921456,-5.508277625,12.79920809,0.618195586,-0.035430184,0.520457183,1756821811
-0.366101858,-3.242274623,11.04526912,0.496022573,-0.535117949,0.634078152,1756821811
0.021535403,-1.146162025,9.533005238,0.237015712,-1.039692635,0.69882985,1756821811
0.449850649,0.612562586,8.14516813,0.015882496,-1.468520015,0.73670346,1756821811
0.715453957,2.213360905,6.88415062,-0.134390352,-1.720196476,0.739146903,1756821811
0.945164927,3.842873096,6.084947872,-0.244346095,-1.824043636,0.780685774,1756821811
1.107876864,4.881358104,6.04666271,-0.30665435,-1.742187659,0.731816555,1756821811
0.878165894,6.010770371,6.329015777,-0.518013722,-1.428202962,0.592539299,1756821811
1.686939933,7.192824736,6.623332957,-0.766024991,-1.137431039,0.409279727,1756821811
2.610569457,8.248059502,6.113661743,-0.940732502,-0.733038286,0.276111088,1756821811
3.127419138,7.240681188,6.771687958,-1.07145761,-0.388510291,0.608421795,1756821811
3.981656806,6.817151587,6.51565594,-1.279151826,-0.276111088,0.579100246,1756821811
4.393222294,6.28594497,6.068198114,-1.386664038,-0.144164196,0.518013722,1756821811
4.998606411,5.517848916,5.836094321,-1.445307119,-0.014660766,0.533896218,1756821811
5.321637462,5.268995365,5.472385286,-1.402546604,0.207694181,0.50701813,1756821811
5.257031252,5.230710204,5.197210687,-1.336573176,0.494800843,0.346971438,1756821811
5.321637462,4.460221326,5.474778109,-1.218065302,0.952949737,0.199142068,1756821811
5.43888577,3.2398818,6.113661743,-1.160643953,1.574810636,0.125838239,1756821811
5.223531736,1.701296869,7.010970218,-0.995710321,2.210110379,0.135612083,1756821811
4.948357137,0.021535403,8.267202083,-0.734260016,2.839301505,0.184481302,1756821811
4.584648102,-1.146162025,10.43270654,-0.41661011,3.369532619,0.232128791,1756821811
3.945764467,-1.80418824,12.81835067,-0.191811685,3.771481911,0.234572251,1756821811
2.684746957,-2.445464697,14.46221979,-0.114842665,4.113566549,0.151494579,1756821811
0.835095087,-3.321237769,15.35952827,-0.201585529,4.405560063,0.180816111,1756821811
0.215354034,-3.12024067,15.22792303,-0.248011287,4.409225377,0.322536846,1756821811
-2.134397759,-5.769095289,15.78066505,-0.271224166,4.741536206,0.729373112,1756821811
-3.775874063,-10.15035347,15.24227996,-0.751364226,4.37379521,-0.113620934,1756821811
-5.137390122,-13.89751366,15.01017617,-0.740368634,4.127005671,-0.136833813,1756821811
-6.309873196,-15.94337698,14.1870452,-0.620639099,3.750712458,-0.120951317,1756821811
-7.640282562,-16.93879119,12.75374446,-0.386066848,3.299894139,-0.248011287,1756821811
-8.903692895,-16.25444392,11.12183944,-0.043982297,2.747671719,-0.354301821,1756821811
-9.757930563,-14.07458253,10.05942621,0.289550123,2.056172357,-0.56321775,1756821811
-9.887142983,-11.50947671,9.911071209,0.635299883,1.298699566,-0.715934059,1756821811
-9.382257415,-8.317451358,10.07139032,0.985936529,0.714712346,-1.058018575,1756821811
-8.841479507,-5.771488111,9.600004271,0.982271286,0.301767445,-1.331686272,1756821811
-8.279166196,-4.405186407,8.382057568,0.886976326,-0.10140363,-1.555262914,1756821811
-7.846065305,-4.342973019,7.24307401,0.913854414,-0.463035868,-1.710422667,1756821811
-7.508677319,-3.560520029,5.962913919,1.023810139,-0.664621414,-1.775174365,1756821811
-7.23350272,-2.309073809,4.342973019,1.087340107,-0.711047172,-1.745852833,1756821811
-6.946364008,-0.906879765,2.505285262,1.136209308,-0.703716754,-1.650557874,1756821811
-6.934399895,0.576670247,0.873380249,1.076344515,-0.648738848,-1.576032367,1756821811
-7.159325219,2.103291065,-0.253639196,1.050688227,-0.614530412,-1.479515555,1756821811
-7.384250544,3.280559785,-1.177268719,0.960280154,-0.618195586,-1.393994526,1756821811
-7.377072076,4.390829471,-1.868794451,0.857654777,-0.637743326,-1.361007803,1756821811
-7.278966349,5.376672382,-1.952543242,0.874759004,-0.759916374,-1.280373557,1756821811
-6.975077879,6.025127307,-1.284945736,0.884532865,-0.857654777,-1.122770343,1756821811
-6.592226263,6.857829572,0.196211453,0.929736893,-0.973719207,-1.054353401,1756821811
-6.235695696,7.384250544,2.610569457,0.999375495,-1.039692635,-1.018923235,1756821811
-5.9820565,7.781459095,5.309673349,0.987158242,-1.022588409,-1.039692635,1756821811
-5.381458027,7.231109897,7.724031353,1.070235897,-0.915076127,-1.178969962,1756821811
-5.036891573,6.867400862,9.528219593,0.930958623,-0.941954215,-1.328020958,1756821812
-4.859822701,5.888736419,10.54995484,0.73670346,-1.075122784,-1.49417639,1756821812
-4.869393991,4.811966249,12.260823,0.576656802,-1.277930096,-1.645670969,1756821812
-4.936393024,4.043870194,14.1559385,0.469144485,-1.543045662,-1.759291938,1756821812
-4.754538506,2.51246373,15.49113351,0.318871654,-1.806939357,-1.857030359,1756821812
-4.326223261,0.710668312,16.41715586,0.131946891,-2.04028993,-2.006081477,1756821812
-3.536591803,-1.694118401,16.54636828,0.116064395,-2.199114858,-2.09648955,1756821812
-2.354537438,-3.682553981,16.35254965,0.195476876,-2.283414295,-2.140471777,1756821812
-0.524028149,-5.166103993,16.02473295,0.234572251,-2.313957557,-1.944994953,1756821812
0.856630491,-7.860422241,17.0033974,0.221133216,-2.453234762,-1.882686716,1756821812
3.034099057,-8.587840311,18.2428795,0.463035868,-2.667037595,-1.729970407,1756821812
4.54636294,-7.319644333,18.70469426,0.692721163,-2.896722977,-1.606575629,1756821812
5.654239804,-5.900700532,18.94876217,0.906523996,-3.094643262,-1.448972293,1756821812
6.520441585,-4.199403663,18.53480386,1.043357809,-3.229033562,-1.22417392,1756821812
6.788437716,-2.45742881,17.52024708,1.053131671,-3.253468328,-1.02503187,1756821812
6.762116668,-0.681954441,16.01276884,0.938288971,-3.220481606,-0.827111515,1756821812
6.522834408,0.921236701,13.98126245,0.730594842,-3.022561076,-0.690277702,1756821812
6.075376581,2.081755662,11.78704413,0.400727579,-2.65970723,-0.609643508,1756821812
6.029912952,2.924029217,9.966106129,-0.012217305,-2.140471777,-0.58398715,1756821812
6.314658841,3.785445353,8.389236036,-0.28099801,-1.539380348,-0.467922755,1756821812
6.147161259,3.847658741,7.391429011,-0.428827397,-0.83322022,-0.316428176,1756821812
5.723631659,3.617947771,6.422335858,-0.535117949,-0.100181899,-0.267558974,1756821812
5.156532703,3.328416237,5.168496816,-0.610865238,0.626747734,-0.371406082,1756821812
4.455435681,2.933600508,4.094119469,-0.709825372,1.24494339,-0.397062405,1756821812
3.682553981,2.538784779,3.395415269,-0.712268885,1.782504713,-0.466701042,1756821812
3.060420105,2.199003969,3.196810994,-0.69882985,2.219884311,-0.557109097,1756821812
2.593819698,1.727617917,3.23031051,-0.599869646,2.581516566,-0.551000445,1756821812
2.096112598,1.25144622,3.072384218,-0.454483755,2.835636453,-0.629191178,1756821812
1.550549045,0.866201781,2.64167615,-0.272445896,3.025004782,-0.654847535,1756821812
1.060020412,0.674775973,2.294716873,0.023212879,3.106860514,-0.618195586,1756821812
0.581455892,0.47856452,2.330609212,0.293215297,3.142290663,-0.664621414,1756821812
0.021535403,0.459421939,2.467000101,0.609643508,3.159395082,-0.643851944,1756821812
-0.53359944,0.471386052,3.010170831,0.883311152,3.16672543,-0.60231309,1756821812
-1.127019445,0.461814762,4.151547211,1.042136079,3.152064734,-0.6414085,1756821812
-1.660618884,0.648454925,5.974878032,1.069014167,3.0641,-0.634078152,1756821812
-2.177468566,1.158126138,8.575876198,0.919963031,2.893057681,-0.702495024,1756821812
-2.584248408,1.550549045,10.75334476,0.715934059,2.693915805,-0.687834258,1756821812
-3.024527766,1.586441384,11.92582784,0.445931606,2.348165853,-0.631634639,1756821812
-3.378665511,0.942772104,12.49053397,0.288328392,1.868025881,-0.56321775,1756821812
-3.778266885,0,13.01934777,0.177150919,1.269378017,-0.439822989,1756821812
-3.622733416,-1.134197912,12.92363486,0.119729587,0.557109097,-0.333532438,1756821812
-3.144168896,-2.773281393,12.59103252,0.254119939,-0.031764992,-0.185703032,1756821812
-3.103490912,-4.273581164,13.67498116,0.389732022,-0.301767445,-0.20525072,1756821812
-3.326023414,-6.893721911,15.75912964,0.30054568,-0.189368224,-0.443488163,1756821812
-2.464607278,-8.420342729,16.93639836,0.289550123,0.029321531,-0.594982742,1756821812
-2.287538406,-9.200402897,17.42453417,0.353080108,0.469144485,-0.690277702,1756821812
-2.651247441,-9.207581365,17.40060595,0.364075699,0.908967509,-0.752585956,1756821812
-3.213560752,-8.580661844,16.9507553,0.223576677,1.336573176,-0.768468452,1756821812
-4.022334791,-7.436892641,15.68255932,0.175929189,1.667662153,-0.625526004,1756821812
-5.132604477,-6.465406665,14.35214995,0.12950343,1.842369523,-0.514348513,1756821812
-5.962913919,-6.216553115,12.73938752,0.089186325,1.753183181,-0.469144485,1756821812
-6.508477472,-6.025127307,11.2127667,0.248011287,1.413542126,-0.414166631,1756821812
-7.054041025,-5.395814963,9.870393225,0.529009279,0.984714729,-0.387288578,1756821812
-7.41775006,-4.113262049,8.66919628,0.824668072,0.432492606,-0.406836231,1756821812
-7.714460062,-2.16311163,7.137789816,1.098335698,-0.070860368,-0.456927198,1756821812
-7.798208853,0.193818631,5.335994398,1.125213786,-0.470366251,-0.657290996,1756821812
-7.853243773,2.122433646,3.629911884,1.045801253,-0.773355409,-0.7562512,1756821812
-7.728816998,3.455235834,1.897508322,0.768468452,-1.033584,-0.899193631,1756821812
-7.326822801,4.005585032,0.734596538,0.51190507,-1.306029914,-0.961501885,1756821812
-6.900900378,4.019941968,0.299102825,0.335975881,-1.523497922,-1.075122784,1756821812
-6.39601481,4.046263017,0.380458793,0.288328392,-1.671327327,-1.178969962,1756821812
-5.97248521,4.19701084,0.490528633,0.345749707,-1.745852833,-1.306029914,1756821812
-5.352744156,4.766502619,0.531206617,0.465479312,-1.86558242,-1.442863658,1756821812
-4.570291166,5.429314479,1.294517027,0.527787566,-1.96087738,-1.49417639,1756821812
-3.95772858,5.845665612,3.050848815,0.608421795,-1.912008248,-1.583362715,1756821812
-3.491128173,6.178267953,5.108676251,0.597426203,-1.737300755,-1.648114413,1756821812
-2.691925425,6.63529707,7.106683122,0.559552576,-1.544267375,-1.716531284,1756821812
-2.057827436,7.267002236,9.56171911,0.376292969,-1.409876952,-1.714087841,1756821812
-1.737189208,7.250252478,12.0598259,0.114842665,-1.356120776,-1.839926063,1756821812
-1.921436548,7.022934331,13.77787253,-0.141720735,-1.346346968,-2.012190112,1756821812
-0.210568389,7.568497884,13.91904906,-0.144164196,-1.26326926,-1.90467776,1756821812
-0.612562586,5.651846981,14.18465237,-0.010995574,-1.230282555,-1.714087841,1756821812
-0.275174599,4.991427944,14.44068439,0.069638637,-1.364672977,-1.720196476,1756821812
0.741775006,3.931407532,13.98844092,0.123394778,-1.503950182,-1.557706357,1756821812
3.232703333,2.763710103,15.41217037,0.422718727,-1.762957112,-1.346346968,1756821812
5.412564721,1.880758564,16.04866118,0.774577139,-2.169793326,-0.927293449,1756821812
5.812166095,1.478764367,18.55155362,1.072679341,-2.315179148,-0.504574687,1756821812
5.651846981,1.648654771,19.7360008,1.049466497,-2.146580412,-0.267558974,1756821812
5.706881901,1.38065864,19.28854298,0.725707938,-1.824043636,-0.079412481,1756821812
5.754738353,1.304088317,18.11366708,0.326202055,-1.472185189,0.086742864,1756821812
5.728417304,0.72741807,16.64208118,-0.118507856,-1.061683819,0.199142068,1756821812
5.489135044,0.306281293,15.02931875,-0.368962586,-0.643851944,0.23090706,1756821812
5.075176735,-0.086141614,13.47398406,-0.510683339,-0.084299403,0.266337244,1756821812
4.424328987,-0.385244439,12.0382905,-0.601091377,0.505796417,0.213802833,1756821812
3.596412368,-0.24885355,10.37049315,-0.58276542,1.114218194,0.233350521,1756821812
2.684746957,-0.011964113,8.482556117,-0.624304273,1.587027889,0.228463599,1756821812
1.768295901,0.153140646,6.630511425,-0.663399614,1.949881858,0.35796703,1756821812
0.842273555,0.023928226,5.036891573,-0.735481729,2.239431928,0.397062405,1756821812
0.100498549,-0.387637261,3.675375514,-0.807563845,2.437352196,0.41050144,1756821812
-0.622133876,-0.799202748,2.44785752,-0.729373112,2.537534182,0.419053553,1756821812
-1.20598259,-0.952343395,1.598405497,-0.620639099,2.598620706,0.370184317,1756821812
-1.567298803,-0.973878798,1.349551946,-0.421497014,2.552194895,0.389732022,1756821812
-1.887937031,-1.272981623,1.773081547,-0.240680904,2.477669528,0.344527994,1756821812
-2.170290098,-1.727617917,2.354537438,-0.07819075,2.344500819,0.273667627,1756821812
-2.464607278,-1.981257113,2.773281393,0.138055544,2.144136951,0.133168622,1756821812
-2.825923491,-1.931007838,2.878565588,0.304210889,1.982868581,0.002443461,1756821812
-3.215953574,-1.722832272,3.062812928,0.399505848,1.858252072,-0.15393804,1756821812
-3.421736318,-1.615155255,4.261617051,0.448375102,1.727526946,-0.267558974,1756821812
-3.675375514,-1.517049528,7.013363041,0.477696634,1.718974745,-0.349414916,1756821812
-3.926621887,-1.124626622,10.53559791,0.478918364,1.706757493,-0.476474868,1756821812
-4.153940034,-0.691525731,12.54317607,0.370184317,1.604132185,-0.6414085,1756821812
-4.141975921,-0.440279358,13.60319648,0.333532438,1.361007803,-0.712268885,1756821812
-4.074976888,-0.203389921,14.19900931,0.318871654,0.923628205,-0.678060379,1756821812
-3.857230031,-0.117248307,15.03171157,0.403171057,0.307876063,-0.521678896,1756821812
-2.763710103,0.390030084,16.96032659,0.461814103,-0.5131268,-0.382401639,1756821812
-1.052841944,-0.016749758,17.12543135,0.471587964,-1.264490991,-0.006108652,1756821812
-0.677168796,-0.512064036,17.19243038,0.560774306,-1.533271713,0.15271631,1756821812
-0.674775973,-0.825523797,19.36032766,0.395840674,-1.251052008,0.218689755,1756821812
-0.23928226,-1.548156222,19.88914145,0.215024564,-0.66095617,0.100181899,1756821812
0.06460621,-2.543570424,18.71426555,0.042760567,-0.002443461,0.07696902,1756821812
-0.325423874,-3.105883735,17.07518207,-0.111177473,0.646295405,0.074525559,1756821812
-1.098305573,-3.022134944,15.56770384,-0.22968533,1.178969962,-0.015882496,1756821812
-2.227717841,-2.294716873,14.081761,-0.386066848,1.555262914,-0.035430184,1756821812
-3.452843012,-1.136590735,12.25125171,-0.538783158,1.782504713,-0.17959438,1756821812
-4.424328987,-0.035892339,9.932606613,-0.667064858,1.798387279,-0.246789556,1756821812
-5.113461896,0.95712904,7.415357237,-0.733038286,1.607797359,-0.387288578,1756821812
-5.517848916,1.763510256,5.714060369,-0.649960648,1.254717182,-0.509461626,1756821812
-5.606383352,2.069791549,4.603790682,-0.521678896,0.796568253,-0.613308682,1756821812
-5.498706335,2.076970017,3.622733416,-0.405614518,0.379958178,-0.719599251,1756821812
-5.201996332,2.0434705,2.782852684,-0.290771853,-0.008552113,-0.750142513,1756821812
-4.811966249,2.189432679,2.352144616,-0.232128791,-0.263893783,-0.818559454,1756821812
-4.335794551,2.373680019,1.928615016,-0.147829388,-0.450818546,-0.841772298,1756821812
-3.775874063,2.419143649,1.698904046,-0.056199602,-0.619417386,-0.817337724,1756821812
-3.180061235,2.045863323,1.73958203,0.042760567,-0.769690165,-0.735481729,1756821812
-2.677568489,1.828116466,1.679761465,0.155159771,-0.895528457,-0.627969465,1756821812
-2.280359938,1.586441384,1.952543242,0.28099801,-1.039692635,-0.433714319,1756821813
-2.100898243,1.605583965,2.86181583,0.307876063,-1.076344515,-0.211359372,1756821813
-2.048256146,1.438086383,4.402793584,0.350636647,-0.988379973,-0.007330383,1756821813
-2.416750826,0.964307508,6.776473603,0.313984732,-0.773355409,0.114842665,1756821813
-3.266202849,0.693918554,9.552147819,0.327423768,-0.400727579,0.141720735,1756821813
-4.113262049,0.751346296,12.16032445,0.382401639,-0.029321531,0.074525559,1756821813
-4.979463831,0.622133876,13.26341567,0.560774306,0.182037841,0.014660766,1756821813
-6.123233033,0.136390888,13.70848068,0.829554976,0.265115513,0.070860368,1756821813
-7.726424175,-0.411565487,14.67039536,0.995710321,0.298102236,0.146607657,1756821813
-7.822137079,-0.528813795,15.86202102,1.191187214,0.10262536,0.189368224,1756821813
-9.671788949,-1.442872028,18.4223412,1.204626197,-0.008552113,0.17837265,1756821813
-10.05703339,-2.876172765,18.73101531,0.983492999,-0.10140363,-0.531452775,1756821813
-9.174081848,-3.249453091,18.65205217,0.845437472,-0.146607657,-0.916297857,1756821813
-8.305487245,-3.795016644,18.24527233,0.71715579,-0.305432619,-1.059240306,1756821813
-6.996613282,-4.259224228,17.44367675,0.560774306,-0.66095617,-1.127657247,1756821813
-5.625525933,-4.773681087,16.46022667,0.362853969,-1.241278216,-1.091005281,1756821813
-4.156332856,-5.084748025,14.78285802,0.200363798,-1.929112405,-1.103222603,1756821813
-2.256431712,-4.941178669,12.72981623,0.106290551,-2.619390176,-1.003040739,1756821813
-0.334995164,-4.541577295,10.6193467,0.068416907,-3.26324212,-0.810007306,1756821813
1.258624688,-3.967299871,9.018548379,0.023212879,-3.77026032,-0.576656802,1756821813
2.373680019,-3.007778008,7.692924659,0.012217305,-4.167322725,-0.232128791,1756821813
3.007778008,-1.945364774,6.58983344,-0.006108652,-4.356690792,0.107512282,1756821813
3.187239703,-0.775274522,5.541777142,-0.035430184,-4.322482495,0.559552576,1756821813
3.876372612,0.284745889,4.240081647,-0.040317106,-4.16243582,0.908967509,1756821813
3.845265918,0.82791662,2.99102825,0.035430184,-3.9437461,1.233947729,1756821813
3.850051563,1.268195978,2.076970017,0.058643063,-3.641978515,1.452637589,1756821813
3.639483175,1.672582997,1.450050496,0.15271631,-3.209485944,1.590693063,1756821813
3.304488011,2.158325985,1.057627589,0.20525072,-2.679254847,1.671327327,1756821813
2.624926392,2.699103893,1.081555815,0.2565634,-2.035403026,1.530828269,1756821813
1.928615016,3.256631559,1.08634146,0.194255146,-1.266934434,1.439198484,1756821813
1.165304606,3.409772205,1.194018477,0.089186325,-0.449596815,1.188743771,1756821813
0.485742988,4.141975921,1.627119368,-0.032986723,0.356745317,0.979827825,1756821813
0.105284194,4.613361973,3.270988494,-0.141720735,1.145983257,0.643851944,1756821813
-0.17467605,5.673382385,6.283552148,-0.260228591,1.893682238,0.291993584,1756821813
-0.430708068,6.501299004,10.07378315,-0.405614518,2.549751434,-0.072082098,1756821813
-0.880558717,6.551548279,12.0598259,-0.533896218,3.017674172,-0.381179909,1756821813
-1.481157189,5.967699564,13.65583858,-0.505796417,3.14962129,-0.547335271,1756821813
-1.92382937,4.893322217,15.68973779,-0.514348513,3.018896025,-0.592539299,1756821813
-1.454836141,3.558127206,17.65424514,-0.537561392,2.4312437,-0.318871654,1756821813
-1.701296869,1.433300737,17.94138385,-0.287106679,1.607797359,-0.019547688,1756821813
-2.763710103,-0.981057266,18.20937999,0.119729587,1.24494339,0.272445896,1756821813
-2.976671314,-2.309073809,20.40120549,0.535117949,1.028697044,0.234572251,1756821813
-3.086741154,-2.787638329,22.00200381,0.95661498,0.840550568,0.2565634,1756821813
-3.424129141,-2.536391956,21.64308042,1.017701504,0.537561392,0.252898209,1756821813
-3.88355108,-2.333002035,19.45843338,0.616973856,0.131946891,0.119729587,1756821813
-3.409772205,-2.038684855,16.57508215,0.141720735,-0.22968533,0.090408055,1756821813
-2.667997199,-2.268395825,14.06501124,-0.30665435,-0.510683339,0.124616509,1756821813
-2.086541307,-2.612962279,12.05504026,-0.643851944,-0.634078152,0.252898209,1756821813
-1.301695494,-3.005385186,10.18863863,-0.861319951,-0.647517118,0.332310707,1756821813
-0.928415169,-3.251845913,8.566304908,-0.919963031,-0.565661211,0.494800843,1756821813
-0.95712904,-3.259024381,7.00379175,-0.922406475,-0.406836231,0.516792009,1756821813
-1.107876864,-3.077169864,5.180460929,-0.808785575,-0.208915911,0.60231309,1756821813
-1.363908882,-2.782852684,3.649054465,-0.652404092,-0.037873645,0.608421795,1756821813
-1.761117434,-2.529213488,2.352144616,-0.453261989,0.135612083,0.581543707,1756821813
-2.112862356,-2.289931228,1.277767268,-0.237015712,0.250454748,0.588874125,1756821813
-2.500499617,-2.21814655,0.531206617,0.006108652,0.310319558,0.548556984,1756821813
-2.780459861,-2.08893413,0.083748791,0.277332818,0.332310707,0.526565835,1756821813
-2.967100024,-1.682154288,-0.076570323,0.502131226,0.284663184,0.49357913,1756821813
-2.971885669,-1.062413234,0.069391855,0.653625822,0.211359372,0.422718727,1756821813
-2.895315346,-0.296710002,0.648454925,0.733038286,0.094073247,0.322536846,1756821813
-2.778067039,0.361316213,1.964507355,0.676838666,0.004886922,0.189368224,1756821813
-2.589034053,0.696311377,3.735196079,0.58276542,-0.003665191,0.073303829,1756821813
-2.548356069,0.945164927,5.778666579,0.443488163,0.092851516,0.009773844,1756821813
-2.713460828,1.287338559,7.996813129,0.346971438,0.248011287,-0.111177473,1756821813
-3.263810026,1.875972918,10.52841944,0.208915911,0.368962586,-0.180816111,1756821813
-3.735196079,2.385644132,13.05524011,0.056199602,0.405614518,-0.284663184,1756821813
-4.05822713,2.227717841,14.44068439,-0.02565634,0.322536846,-0.322536846,1756821813
-4.462614149,1.639083481,14.49332649,-0.056199602,0.070860368,-0.193033415,1756821813
-5.388636495,1.497906948,15.61316747,-0.131946891,-0.180816111,-0.195476876,1756821813
-5.268995365,0.753739119,18.02513265,-0.191811685,-0.466701042,-0.02687807,1756821813
-5.639882868,-1.170090251,20.61177388,0.063529985,-0.520457183,0.068416907,1756821813
-5.369493914,-2.663211554,20.88216283,0.542448332,-0.245567826,-0.019547688,1756821813
-5.288137946,-2.682354135,21.24108622,0.822224628,0.053756141,-0.196698607,1756821813
-5.242674317,-2.411965181,22.05225308,0.789237905,0.211359372,-0.470366251,1756821813
-4.773681087,-1.722832272,20.28156436,0.574213359,0.109955743,-0.690277702,1756821813
-3.876372612,-1.42612227,17.94138385,0.223576677,-0.194255146,-0.788016192,1756821813
-3.103490912,-1.488335657,15.49831198,-0.068416907,-0.604756621,-0.893084943,1756821813
-1.895115499,-1.753938966,13.10070374,-0.295658793,-1.064127262,-0.788016192,1756821813
-0.638883634,-1.765903079,10.93041364,-0.530231009,-1.579697541,-0.712268885,1756821813
0.674775973,-1.521835174,9.020941202,-0.58398715,-2.051285452,-0.372627795,1756821813
1.514656706,-0.937986459,7.314858688,-0.634078152,-2.426356796,-0.122173048,1756821813
2.060220259,-0.143569356,5.943771338,-0.566882941,-2.663372543,0.215024564,1756821813
2.390429777,0.399601374,4.61096915,-0.498466017,-2.773328077,0.538783158,1756821813
2.581855585,0.777667345,3.548555916,-0.481361808,-2.750115425,0.781907487,1756821813
2.636890505,1.129412267,2.45742881,-0.41661011,-2.647489977,1.007927643,1756821813
2.598605344,1.339980656,1.615155255,-0.397062405,-2.399478586,1.154535335,1756821813
2.390429777,1.517049528,0.995414202,-0.364075699,-2.119702324,1.226617381,1756821813
2.112862356,1.550549045,0.559920488,-0.350636647,-1.773952634,1.308473358,1756821813
1.713260982,1.552941867,0.454636294,-0.333532438,-1.317025436,1.276708383,1756821813
1.430907915,1.488335657,0.47856452,-0.271224166,-0.75747293,1.255938912,1756821813
1.055234767,1.198804123,0.770488877,-0.145385927,-0.15393804,1.193630658,1756821813
0.693918554,1.036092186,1.318445253,0.164933614,0.422718727,1.061683819,1756821813
0.550349198,0.72741807,2.199003969,0.475253155,0.966388789,0.918741301,1756821813
0.253639196,0.911665411,3.993620919,0.746477321,1.466076572,0.651182361,1756821813
0.019142581,1.497906948,7.36271514,0.817337724,2.007303208,0.450818546,1756821813
-0.076570323,2.565105827,12.67717413,0.706160198,2.572964348,0.157603231,1756821813
0.059820565,3.232703333,17.60638869,0.477696634,3.029891686,0.003665191,1756821813
-0.428315245,2.93599333,19.2167583,0.323758559,3.28401159,-0.007330383,1756821813
-1.172483074,2.500499617,20.75055759,0.271224166,3.247359571,-0.021991149,1756821813
-0.141176533,2.134397759,21.86561292,0.290771853,2.605951071,0.279776297,1756821813
0.461814762,0.741775006,21.00898243,0.354301821,1.448972293,0.874759004,1756821813
-1.110269686,-1.679761465,20.11406678,0.649960648,0.824668072,1.216843572,1756821813
-2.100898243,-2.000399694,22.12164494,0.653625822,0.586430594,1.216843572,1756821813
-2.323430745,-2.019542274,22.14078752,0.263893783,0.521678896,1.05190994,1756821813
-2.38325131,-2.289931228,19.70250129,-0.188146493,0.576656802,0.895528457,1756821813
-2.330609212,-2.739781877,16.34058554,-0.616973856,0.706160198,0.774577139,1756821813
-2.531606311,-3.393022447,13.05763293,-0.8906415,0.912632683,0.673173492,1756821813
-2.8163522,-3.684946804,10.75813041,-1.042136079,1.126435517,0.674395206,1756821813
-3.287738252,-3.519842045,8.807979991,-1.080009759,1.312138532,0.670730032,1756821813
-3.814159224,-3.012563653,6.623332957,-1.012814547,1.390329352,0.65973444,1756821813
-4.352544309,-2.301895341,4.594219392,-0.907745709,1.380555403,0.668286588,1756821813
-4.807180603,-1.572084448,3.093919622,-0.769690165,1.262047547,0.560774306,1756821813
-5.096712138,-1.000199847,2.08893413,-0.682947354,1.117883438,0.5131268,1756821813
-5.101497783,-0.492921456,1.385444285,-0.50701813,0.935845527,0.318871654,1756821813
-4.989035121,-0.11964113,0.863808959,-0.310319558,0.654847535,0.195476876,1756821813
-4.900500685,-0.016749758,0.59820565,-0.058643063,0.388510291,0.047647489,1756821813
-4.646861489,0.18424734,0.531206617,0.141720735,0.095294977,-0.039095375,1756821813
-4.304687857,0.65324057,0.382851616,0.28099801,-0.190589954,-0.056199602,1756821813
-3.833301805,1.167697429,0.610169763,0.293215297,-0.483805251,-0.167377075,1756821813
-3.275774139,1.686939933,1.138983558,0.267558974,-0.780685774,-0.17837265,1756821813
-2.656033086,1.998006871,2.313859454,0.167377075,-0.934623797,-0.217468025,1756821813
-2.191825502,1.974078645,3.641875997,0.073303829,-0.94806285,-0.183259571,1756821813
-2.072184372,1.921436548,5.228317381,0.013439035,-0.785572661,-0.191811685,1756821813
-2.201396792,1.954936064,7.635496917,-0.030543262,-0.486248747,-0.193033415,1756821813
-2.550748892,2.124826469,10.58106154,-0.029321531,-0.166155345,-0.276111088,1756821813
-2.830709136,2.072184372,12.50489091,-0.07819075,0.120951317,-0.239459173,1756821814
-2.928814862,1.569691626,13.36630704,0.003665191,0.288328392,-0.108734012,1756821814
-3.656232933,0.942772104,14.12243899,0.139277274,0.323758559,-0.02687807,1756821814
-4.943571492,0.454636294,16.26401521,0.168598806,0.317649941,0.067195176,1756821814
-5.816951741,-1.033699363,19.50628984,0.233350521,0.338419325,0.270002435,1756821814
-6.128018679,-2.435893407,21.46840437,0.634078152,0.420275284,0.331088942,1756821814
-7.223931429,-3.270988494,19.99681847,1.055575132,0.675616936,0.142942466,1756821814
-6.915257314,-2.87138712,21.04726759,1.042136079,0.923628205,-0.191811685,1756821814
-6.812365942,-2.739781877,22.00678945,0.687834258,1.011592817,-0.333532438,1756821814
-6.032305775,-2.744567522,20.36292033,0.279776297,0.668286588,-0.403171057,1756821814
-4.867001168,-2.579462763,18.0418824,-0.059864793,-0.009773844,-0.598647916,1756821814
-3.503092286,-3.565305674,15.86202102,-0.290771853,-0.724486138,-0.636521596,1756821814
-1.97886429,-4.051048662,13.09831091,-0.455705485,-1.404990048,-0.590095838,1756821814
-0.394815729,-3.646661642,10.7892371,-0.591317568,-2.051285452,-0.367740873,1756821814
0.839880733,-2.885744056,9.032905315,-0.60353489,-2.620611767,-0.175929189,1756821814
1.746760498,-1.919043725,7.506284496,-0.553443888,-2.989574354,0.02565634,1756821814
2.371287197,-0.971485976,5.915057467,-0.43004911,-3.196046839,0.268780705,1756821814
2.708675183,-0.05503492,4.218546244,-0.307876063,-3.226590101,0.524122392,1756821814
2.859423007,0.650847747,2.63210486,-0.254119939,-3.167947038,0.735481729,1756821814
2.993421073,1.194018477,1.466800254,-0.290771853,-2.993239667,0.891863213,1756821814
3.022134944,1.375872995,0.631705166,-0.345749707,-2.734232876,1.007927643,1756821814
2.969492847,1.763510256,0.095712904,-0.401949344,-2.406808934,1.032362287,1756821814
2.75174599,1.890329854,-0.17467605,-0.448375102,-1.974316502,1.015257991,1756821814
2.526820666,1.911865257,-0.11964113,-0.477696634,-1.418429031,0.930958623,1756821814
2.227717841,1.909472435,0.191425808,-0.508239896,-0.781907487,0.849102716,1756821814
1.998006871,1.80418824,0.60777694,-0.51190507,-0.056199602,0.7550294,1756821814
1.780260014,1.258624688,1.304088317,-0.277332818,0.741590434,0.552222158,1756821814
1.576870093,0.689132909,2.660818731,-0.003665191,1.565036705,0.438601224,1756821814
1.330409366,0.500099923,5.350351334,0.317649941,2.454456614,0.219911486,1756821814
0.899701298,1.093519928,9.422935399,0.527787566,3.396410829,0.023212879,1756821814
0.658026215,2.246860421,14.37368536,0.538783158,4.206417943,-0.2565634,1756821814
-0.050249275,2.962314379,17.41974853,0.426383936,4.801400877,-0.372627795,1756821814
-1.531406464,2.890529701,18.45823354,0.323758559,5.066516443,-0.355523586,1756821814
-2.979064137,2.648854618,20.90130541,0.138055544,4.985882301,-0.254119939,1756821814
-3.876372612,2.610569457,25.66062956,-0.036651914,4.3664646,0.139277274,1756821814
-4.694717941,-0.921236701,18.94876217,0.254119939,3.218038162,0.734260016,1756821814
-6.795616184,-2.21814655,17.66142361,0.731816555,2.217440867,0.978606112,1756821814
-8.762516361,-1.5457634,20.15235194,0.667064858,1.431868136,0.950506293,1756821814
-9.131011042,-1.30648114,19.87239169,0.079412481,0.840550568,0.739146903,1756821814
-8.60459007,-2.220539373,16.67079505,-0.587652324,0.333532438,0.645073674,1756821814
-7.319644333,-3.455235834,12.8853497,-0.96761052,-0.009773844,0.551000445,1756821814
-6.245266986,-4.390829471,10.18385299,-1.131322421,-0.2565634,0.58276542,1756821814
-5.580062303,-4.512863424,8.327022648,-1.1484267,-0.426383936,0.49357913,1756821814
-5.280959478,-4.120440517,6.534798521,-1.099557429,-0.489913921,0.450818546,1756821814
-4.864608346,-3.476771238,4.752145684,-0.911410953,-0.543670062,0.316428176,1756821814
-4.450650036,-2.675175667,3.290131075,-0.7562512,-0.575435072,0.199142068,1756821814
-4.043870194,-1.947757596,2.256431712,-0.605978334,-0.571769828,0.097738438,1756821814
-3.661018578,-1.363908882,1.485942835,-0.445931606,-0.604756621,-0.063529985,1756821814
-3.400200915,-1.007378315,0.787238635,-0.267558974,-0.627969465,-0.250454748,1756821814
-3.299702365,-0.631705166,0.17467605,-0.023212879,-0.654847535,-0.361632204,1756821814
-3.227917687,-0.272781776,-0.41395831,0.114842665,-0.715934059,-0.514348513,1756821814
-3.019742121,0.086141614,-0.669990328,0.234572251,-0.786794462,-0.629191178,1756821814
-2.660818731,0.528813795,-0.296710002,0.241902634,-0.905302266,-0.788016192,1756821814
-2.117648001,0.7728817,0.71784678,0.194255146,-0.933402084,-0.846659185,1756821814
-1.596012674,0.605384118,2.182254211,0.190589954,-0.825889802,-0.850324429,1756821814
-1.282552914,0.253639196,3.594019545,0.263893783,-0.561996037,-0.79534654,1756821814
-1.198804123,-0.045463629,5.481956577,0.335975881,-0.167377075,-0.752585956,1756821814
-1.548156222,-0.06460621,8.252845147,0.426383936,0.318871654,-0.709825372,1756821814
-2.134397759,0.191425808,11.56929727,0.423940493,0.827111515,-0.6414085,1756821814
-2.797209619,0.351744922,13.43330608,0.438601224,1.119105169,-0.504574687,1756821814
-3.694518094,0.217746857,14.2612227,0.520457183,1.177748232,-0.362853969,1756821814
-5.158925526,-0.387637261,15.79980763,0.66095617,1.060462019,-0.197920337,1756821814
-7.200003203,-0.942772104,19.45364774,0.886976326,0.83322022,0.009773844,1756821814
-8.164310711,-1.466800254,21.79143542,1.012814547,0.560774306,0.164933614,1756821814
-9.370293302,-1.253839042,22.62653051,1.070235897,0.438601224,0.193033415,1756821814
-9.583254513,-1.935793483,20.42752654,0.957836711,0.590095838,-0.07819075,1756821814
-8.800801523,-2.524427843,21.22194364,0.723264425,0.665843145,-0.34086282,1756821814
-8.00638442,-2.945564621,21.81775647,0.408057962,0.423940493,-0.426383936,1756821814
-6.843472636,-3.402593737,19.42732669,0.015882496,-0.190589954,-0.514348513,1756821814
-5.276173833,-3.70887503,16.5798678,-0.240680904,-0.95661498,-0.599869646,1756821814
-3.543770271,-4.07736971,13.99083374,-0.454483755,-1.764178843,-0.652404092,1756821814
-1.844866225,-3.517449222,11.15294614,-0.38362337,-2.414139544,-0.470366251,1756821814
-0.191425808,-3.208775107,9.054440718,-0.399505848,-3.057991505,-0.400727579,1756821814
1.028913718,-2.277967115,7.36271514,-0.426383936,-3.535688034,-0.191811685,1756821814
2.000399694,-1.103091219,5.714060369,-0.326202055,-3.830124991,0.007330383,1756821814
2.52203502,0.035892339,4.063012775,-0.237015712,-3.966958735,0.228463599,1756821814
2.907279459,0.851844846,2.708675183,-0.15271631,-3.959628387,0.404392788,1756821814
3.12024067,1.691725578,1.517049528,-0.12705997,-3.838677192,0.533896218,1756821814
3.218346397,2.256431712,0.629312344,-0.207694181,-3.576005087,0.570548115,1756821814
3.270988494,2.7421747,-0.004785645,-0.260228591,-3.167947038,0.605978334,1756821814
3.136990429,2.998206718,-0.411565487,-0.343306264,-2.607172924,0.575435072,1756821814
3.034099057,3.335594704,-0.550349198,-0.465479312,-1.952325319,0.475253155,1756821814
2.797209619,3.538984625,-0.17467605,-0.525344105,-1.214400128,0.400727579,1756821814
2.596212521,3.495913819,0.244067905,-0.620639099,-0.364075699,0.233350521,1756821814
2.50289244,2.706282361,0.806381216,-0.481361808,0.485027017,0.05131268,1756821814
2.15354034,1.588834206,1.787438482,-0.124616509,1.357342507,-0.095294977,1756821814
1.68454711,0.483350165,3.988835274,0.327423768,2.295631548,-0.249233017,1756821814
1.543370577,0.186640163,8.147560953,0.73792519,3.158173229,-0.372627795,1756821814
1.284945736,1.069591702,13.13659607,0.822224628,3.887546463,-0.560774306,1756821814
0.928415169,2.311466632,16.35733529,0.792903079,4.370129897,-0.553443888,1756821814
-0.198604276,2.294716873,17.10150312,0.71837752,4.555832929,-0.476474868,1756821814
-1.299302672,1.887937031,20.26960024,0.696386406,4.456872795,-0.261450322,1756821814
-1.249053397,1.737189208,26.17030078,0.636521596,3.817907739,0.221133216,1756821814
-1.808973886,-0.263210486,24.31347044,0.723264425,2.767219581,0.855211333,1756821814
-4.374079713,-2.206182437,21.89432679,1.066570723,2.036624739,1.112996464,1756821814
-5.580062303,-2.172682921,23.21277204,0.867428656,1.539380348,1.064127262,1756821814
-6.345765535,-3.022134944,22.41835494,0.284663184,1.277930096,0.862541681,1756821814
-5.886343596,-4.29750939,19.27418604,-0.393397231,1.097113985,0.702495024,1756821814
-5.170889639,-5.836094321,15.10349625,-0.897971918,0.972497477,0.557109097,1756821814
-4.644468667,-6.719045861,11.70568816,-1.088561837,0.860098238,0.549778714,1756821814
-4.599005037,-6.69033199,9.231509591,-1.177748232,0.735481729,0.477696634,1756821814
-4.673182538,-6.46062102,7.360322318,-1.152091874,0.615752143,0.445931606,1756821814
-4.687539473,-5.491527867,5.592026416,-1.111774751,0.475253155,0.367740873,1756821814
-4.570291166,-4.479363907,4.063012775,-0.977384381,0.342084533,0.22968533,1756821814
-4.364508422,-3.35952293,2.88095841,-0.784350948,0.194255146,0.120951317,1756821814
-3.979263984,-2.409572358,1.926222193,-0.619417386,0.017104227,-0.006108652,1756821814
-3.570091319,-1.773081547,1.088734283,-0.395840674,-0.183259571,-0.095294977,1756821814
-3.328416237,-1.213161058,0.442672181,-0.186924763,-0.35796703,-0.185703032,1756821814
-3.069991396,-0.595812827,-0.090927259,0.02687807,-0.54611354,-0.254119939,1756821814
-2.845066071,0.098105727,-0.703489844,0.194255146,-0.734260016,-0.345749707,1756821814
-2.610569457,0.78245299,-0.760917587,0.270002435,-0.950506293,-0.472809694,1756821814
-2.32821639,1.397408398,-0.36849468,0.221133216,-1.082453202,-0.547335271,1756821814
-2.038684855,1.746760498,0.83748791,0.212581103,-1.125213786,-0.634078152,1756821814
-1.6199409,1.696511223,2.691925425,0.217468025,-0.927293449,-0.657290996,1756821814
-1.239482107,1.356730414,4.661218425,0.373849526,-0.558330828,-0.723264425,1756821814
-1.421336624,1.191625655,7.556533771,0.448375102,0.013439035,-0.762359817,1756821814
-1.97886429,1.574477271,11.38744275,0.553443888,0.780685774,-0.678060379,1756821814
-3.148954542,2.538784779,14.52204036,0.532674488,1.514945843,-0.638965057,1756821814
-4.378865358,3.22073922,15.25424408,0.500909513,1.888795334,-0.547335271,1756821814
-5.661418272,3.010170831,15.18963786,0.653625822,1.821600193,-0.338419325,1756821814
-8.161917889,1.993221226,17.49871167,0.766024991,1.545489105,-0.238237443,1756821814
-10.27238742,1.284945736,18.94397652,0.79534654,1.20584791,-0.058643063,1756821814
-11.14337485,-0.016749758,19.43211233,0.766024991,0.83322022,-0.114842665,1756821814
-11.87797139,-1.246660575,18.61615983,0.750142513,0.741590434,-0.384845083,1756821814
-11.26301598,-2.285145583,18.52283975,0.752585956,0.669508319,-0.751364226,1756821814
-10.16231758,-2.993421073,19.15693774,0.543670062,0.395840674,-0.926071719,1756821815
-8.597411602,-3.665804223,18.02273982,0.327423768,-0.222354947,-0.930958623,1756821815
-6.776473603,-4.37168689,15.98884061,0.073303829,-1.000597295,-0.902858822,1756821815
-4.764109797,-4.742574393,13.78265818,-0.172263997,-1.830152271,-0.863763482,1756821815
-2.75174599,-4.900500685,11.55494034,-0.333532438,-2.604729463,-0.726929668,1756821815
-0.789631458,-4.41715052,9.265009107,-0.388510291,-3.28278972,-0.521678896,1756821815
0.720239603,-3.65384011,7.30768022,-0.370184317,-3.835011896,-0.254119939,1756821815
1.811366708,-2.88095841,5.804987628,-0.30665435,-4.260174101,0.012217305,1756821815
2.488535504,-1.995614048,4.642075844,-0.217468025,-4.497190111,0.249233017,1756821815
2.976671314,-1.13180509,3.543770271,-0.07819075,-4.592484948,0.5131268,1756821815
3.342773172,-0.332602341,2.428714939,0.017104227,-4.531398424,0.704938467,1756821815
3.481556883,0.311066938,1.464407431,0.070860368,-4.356690792,0.810007306,1756821815
3.543770271,0.878165894,0.564706134,0.073303829,-4.032932425,0.904080535,1756821815
3.629911884,1.37108735,-0.076570323,0.032986723,-3.624874358,0.874759004,1756821815
3.467199947,1.921436548,-0.380458793,-0.065973446,-3.086091306,0.796568253,1756821815
3.136990429,2.373680019,-0.177068872,-0.213802833,-2.382374429,0.741590434,1756821815
2.821137845,2.787638329,0.222532502,-0.397062405,-1.552819453,0.532674488,1756821815
2.636890505,2.725424941,0.531206617,-0.515570278,-0.579100246,0.399505848,1756821815
2.438286229,1.950150419,1.225125171,-0.459370659,0.408057962,0.180816111,1756821815
2.316252277,0.923629524,2.701496715,-0.175929189,1.406211778,-0.046425758,1756821815
2.40239389,-0.021535403,5.833701499,0.175929189,2.474004215,-0.228463599,1756821815
2.593819698,0.021535403,11.28215856,0.467922755,3.419623481,-0.531452775,1756821815
2.536391956,0.978664443,16.58943909,0.547335271,4.267504467,-0.746477321,1756821815
1.694118401,1.557727513,17.74756522,0.485027017,4.841717948,-0.882089421,1756821815
0.112462662,1.517049528,18.37687757,0.459370659,5.045746972,-0.834441933,1756821815
-0.83748791,1.191625655,21.76032872,0.450818546,4.783074606,-0.618195586,1756821815
-0.624526699,0.406779842,24.54318141,0.525344105,3.872885505,-0.048869219,1756821815
-3.069991396,-2.730210587,20.35334904,0.927293449,2.769663025,0.426383936,1756821815
-5.08953367,-2.938386153,22.24367889,0.917519588,2.048841991,0.549778714,1756821815
-6.496513359,-2.900100991,23.01656059,0.596204472,1.442863658,0.530231009,1756821815
-6.448656907,-3.206382284,20.80080686,0.036651914,0.982271286,0.43004911,1756821815
-5.749952708,-3.89312237,16.75215102,-0.472809694,0.605978334,0.397062405,1756821815
-4.953142782,-4.744967216,12.76810139,-0.811229036,0.272445896,0.334754151,1756821815
-4.553541408,-5.03449875,9.98524871,-0.902858822,0.05009095,0.299323967,1756821815
-4.115654872,-4.876572459,7.944171032,-0.904080535,-0.087964594,0.239459173,1756821815
-4.005585032,-4.204189308,6.065805291,-0.822224628,-0.160046692,0.145385927,1756821815
-3.744767369,-3.397808092,4.515256246,-0.67928211,-0.223576677,0.067195176,1756821815
-3.421736318,-2.639283328,3.345165995,-0.531452775,-0.232128791,-0.065973446,1756821815
-3.060420105,-1.952543242,2.364108729,-0.382401639,-0.217468025,-0.183259571,1756821815
-2.821137845,-1.284945736,1.44526485,-0.161268423,-0.224798408,-0.234572251,1756821815
-2.670390022,-0.624526699,0.799202748,0.036651914,-0.23090706,-0.342084533,1756821815
-2.656033086,-0.019142581,0.327816696,0.228463599,-0.259006861,-0.343306264,1756821815
-2.589034053,0.540777908,-0.447457826,0.370184317,-0.322536846,-0.469144485,1756821815
-2.423929294,1.119840977,-0.8470592,0.412944901,-0.476474868,-0.535117949,1756821815
-2.057827436,1.600798319,-0.552742021,0.419053553,-0.624304273,-0.590095838,1756821815
-1.751546143,2.03389921,0.569491779,0.354301821,-0.713490616,-0.631634639,1756821815
-1.375872995,2.117648001,2.285145583,0.28099801,-0.6414085,-0.629191178,1756821815
-1.129412267,1.962114532,4.247260115,0.273667627,-0.338419325,-0.599869646,1756821815
-1.282552914,2.134397759,6.80997312,0.254119939,0.109955743,-0.588874125,1756821815
-1.653440417,2.627319215,10.41595678,0.283441471,0.712268885,-0.599869646,1756821815
-2.227717841,3.086741154,14.43589875,0.168598806,1.291369079,-0.566882941,1756821815
-2.852244539,3.249453091,16.07976787,0.119729587,1.689653214,-0.420275284,1756821815
-4.345365842,2.550748892,16.7497582,0.046425758,1.837482619,-0.320093385,1756821815
-6.687939167,1.792224127,18.83869233,0.068416907,1.804495896,-0.228463599,1756821815
-8.894121604,0.177068872,21.55933163,0.223576677,1.656666491,-0.081855942,1756821815
-9.463613383,-1.667797352,21.39183404,0.509461626,1.35856422,0.045204028,1756821815
-10.13360371,-2.790031152,19.41536258,0.849102716,1.220508746,-0.10262536,1756821815
-10.30349412,-3.337987527,19.60678838,0.977384381,1.141096213,-0.394618961,1756821815
-10.04028363,-3.067598573,20.47299017,0.83199842,0.883311152,-0.598647916,1756821815
-9.035298138,-3.041277525,19.57807451,0.491135634,0.322536846,-0.690277702,1756821815
-7.441678286,-3.491128173,17.33360691,0.07696902,-0.491135634,-0.739146903,1756821815
-5.560919722,-4.235296002,14.97189101,-0.244346095,-1.402546604,-0.811229036,1756821815
-3.519842045,-4.752145684,12.52881913,-0.445931606,-2.228436389,-0.764803278,1756821815
-1.378265818,-4.716253345,10.07378315,-0.524122392,-2.939483491,-0.71715579,1756821815
0.291924357,-3.979263984,7.915457161,-0.475253155,-3.555235634,-0.547335271,1756821815
1.485942835,-3.024527766,6.151946905,-0.375071256,-3.974289362,-0.349414916,1756821815
2.368894374,-2.194218324,4.742574393,-0.213802833,-4.229630839,-0.134390352,1756821815
2.904886636,-1.201196945,3.366701398,-0.10262536,-4.346917,0.116064395,1756821815
3.278166962,-0.24885355,2.16311163,-0.013439035,-4.300491172,0.289550123,1756821815
3.452843012,0.416351132,1.225125171,0.035430184,-4.151440176,0.510683339,1756821815
3.546163093,0.909272588,0.509671214,-0.012217305,-3.863111697,0.581543707,1756821815
3.584448255,1.179661542,0.117248307,-0.046425758,-3.423288777,0.668286588,1756821815
3.491128173,1.493121302,-0.057427742,-0.084299403,-2.894279533,0.653625822,1756821815
3.292523898,1.761117434,0,-0.184481302,-2.280970834,0.591317568,1756821815
2.940778975,2.124826469,0.141176533,-0.263893783,-1.521054478,0.48747046,1756821815
2.68713978,2.421536471,0.165104759,-0.345749707,-0.704938467,0.311541271,1756821815
2.474178568,2.361715906,0.334995164,-0.405614518,0.212581103,0.171042267,1756821815
2.277967115,1.572084448,1.074377347,-0.248011287,1.127657247,-0.054977871,1756821815
2.048256146,0.665204683,2.706282361,-0.00122173,2.047620278,-0.167377075,1756821815
2.048256146,-0.074177501,6.226124405,0.331088942,2.981022415,-0.384845083,1756821815
2.146361872,0.23928226,11.56929727,0.568104654,3.897320272,-0.586430594,1756821815
1.830509289,1.531406464,16.90529167,0.568104654,4.660901558,-0.79534654,1756821815
0.665204683,1.947757596,17.81217143,0.442266432,5.098281016,-0.840550568,1756821815
-0.96670033,1.428515092,18.49173305,0.317649941,5.150815601,-0.792903079,1756821815
-2.072184372,0.650847747,22.49013962,0.323758559,4.817283443,-0.489913921,1756821815
-2.519642198,-0.038285162,25.22752867,0.387288578,3.836233748,0.151494579,1756821815
-4.800002136,-3.134597606,19.60918121,0.911410953,2.751337015,0.586430594,1756821815
-6.343372713,-2.758924458,21.77947131,1.017701504,1.880243256,0.702495024,1756821815
-7.664210788,-2.438286229,22.78924244,0.590095838,1.192408945,0.609643508,1756821815
-7.556533771,-2.768495748,20.67398726,-0.065973446,0.689055989,0.508239896,1756821815
-6.673582231,-3.768695595,16.64686683,-0.576656802,0.335975881,0.453261989,1756821815
-5.888736419,-4.402793584,12.70828083,-0.912632683,0.073303829,0.382401639,1756821815
-5.245067139,-4.520041891,9.844072176,-1.026253583,-0.105068821,0.332310707,1756821815
-4.965106895,-4.12283334,7.501498851,-1.119105169,-0.233350521,0.291993584,1756821815
-4.711467699,-3.531806158,5.431707302,-0.992045147,-0.335975881,0.189368224,1756821815
-4.369294068,-2.892922523,3.979263984,-0.896750187,-0.38362337,0.091629786,1756821815
-3.933800354,-2.340180503,2.947957443,-0.686612528,-0.397062405,-0.036651914,1756821815
-3.536591803,-1.73958203,1.866401628,-0.500909513,-0.427605667,-0.130725161,1756821815
-3.192025348,-1.208375413,0.940379282,-0.307876063,-0.474031425,-0.257785131,1756821815
-3.031706234,-0.701097022,0.550349198,-0.131946891,-0.536339679,-0.295658793,1756821815
-2.955135911,-0.265603309,0.387637261,0.036651914,-0.538783158,-0.433714319,1756821815
-2.730210587,0.153140646,0,0.118507856,-0.591317568,-0.478918364,1756821815
-2.478964214,0.619741053,-0.306281293,0.190589954,-0.704938467,-0.544891775,1756821815
-2.076970017,0.969093153,-0.019142581,0.17837265,-0.816115923,-0.596204472,1756821815
-1.612762432,0.995414202,1.227517994,0.23090706,-0.869872099,-0.547335271,1756821815
-1.299302672,0.763310409,2.828316313,0.234572251,-0.73670346,-0.478918364,1756821815
-1.136590735,0.756131942,4.474578262,0.320093385,-0.478918364,-0.390953752,1756821815
-1.356730414,0.672383151,7.039684089,0.409279727,-0.091629786,-0.355523586,1756821815
-2.002792516,0.768096055,10.66720315,0.421497014,0.492357365,-0.353080108,1756821815
-2.699103893,0.701097022,13.84487156,0.356745317,1.050688227,-0.293215297,1756821815
-3.878765435,0.591027182,15.15853117,0.343306264,1.429424692,-0.232128791,1756821815
-5.1349973,-0.071784678,15.67777368,0.465479312,1.584584445,-0.056199602,1756821815
-7.54696248,-0.729810893,18.10409579,0.686612528,1.490511216,0.028099801,1756821815
-9.399007173,-0.638883634,19.89871274,0.654847535,1.285260444,0.163711884,1756821815
-10.37527879,-1.093519928,21.48993977,0.649960648,1.077566315,0.17959438,1756821815
-11.43529921,-2.148754695,20.65245186,0.651182361,1.045801253,-0.084299403,1756821815
-11.02373372,-3.086741154,20.22892226,0.662177901,0.968832233,-0.459370659,1756821815
-10.35135057,-3.373879866,20.84387767,0.533896218,0.65973444,-0.678060379,1756821815
-8.882157491,-3.859622854,19.56850322,0.200363798,-0.021991149,-0.824668072,1756821815
-7.142575461,-4.053441484,16.99861175,-0.059864793,-0.932180353,-0.878424247,1756821815
-5.039284396,-4.082155356,14.38564947,-0.304210889,-1.846034697,-0.866206925,1756821815
-2.663211554,-3.912264951,11.8684001,-0.471587964,-2.747671719,-0.707381928,1756821815
-0.540777908,-3.347558817,9.32243685,-0.503352956,-3.508809806,-0.525344105,1756821815
1.105484041,-2.498106794,7.30768022,-0.50701813,-4.108679662,-0.208915911,1756821815
2.155933163,-1.603191142,5.515456093,-0.378736465,-4.51795904,0.112399204,1756821815
2.849851717,-0.71784678,3.917050596,-0.248011287,-4.71832303,0.400727579,1756821816
3.069991396,0.071784678,2.498106794,-0.191811685,-4.71832303,0.741590434,1756821816
3.2398818,0.8470592,1.301695494,-0.223576677,-4.586376191,0.939510771,1756821816
3.306880833,1.406979689,0.442672181,-0.285884914,-4.287052329,1.077566315,1756821816
3.388236802,1.677368643,-0.038285162,-0.411723171,-3.819129591,1.152091874,1756821816
3.337987527,1.753938966,-0.308674115,-0.48747046,-3.255911772,1.177748232,1756821816
3.105883735,1.971685822,-0.289531535,-0.551000445,-2.585181601,1.076344515,1756821816
2.778067039,2.120040824,-0.038285162,-0.56443948,-1.837482619,0.95661498,1756821816
2.660818731,2.148754695,0.138783711,-0.574213359,-0.946841119,0.7550294,1756821816
2.443071875,1.751546143,0.602991295,-0.494800843,-0.065973446,0.624304273,1756821816
2.311466632,0.926022346,1.253839042,-0.249233017,0.824668072,0.401949344,1756821816
1.988435581,-0.062213388,2.26361018,0.12950343,1.681101136,0.219911486,1756821816
