acc_x,acc_y,acc_z,gyro_x,gyro_y,gyro_z,timestamp
3.2111679292,-1.3495519463999999,9.0975115252,-0.5265658353266892,-0.73792519028991,-0.13194689145077132,1756822734.212296
3.1010980895999998,-1.6127624323999998,8.685946037999999,-0.4544837546726159,-0.6096435077216193,-0.21135937241651329,1756822734.220389
3.3667013982,-2.1487546948,9.229116768199999,-0.3665191429188092,-0.40805796166298175,-0.2528982086139784,1756822734.228391
3.2231320422,-2.5890340532000002,9.6047899164,-0.29565879274113194,-0.26022859147235455,-0.30543261909900765,1756822734.236387
3.2614172037999998,-2.7493531674,10.2436735506,-0.1514945790731078,-0.08185594191853406,-0.34819320322616126,1756822734.244398
3.4073793824,-2.9479574431999995,10.664810328199998,-0.1624901533606721,0.006108652381980153,-0.4288273972150068,1756822734.252365
3.326023414,-3.1824540579999994,10.52841944,-0.05253441048502932,0.03665191429188092,-0.5009095127756651,1756822734.260389
3.1896325257999996,-3.2207392195999995,10.145567823999999,0.009773843811168246,0.039095375244672985,-0.44837510229063576,1756822734.268385
2.8283163131999998,-2.9814569596,10.0546405652,0.1392772743091475,0.0,-0.5656612105713621,1756822734.276375
2.7062823605999995,-2.8307091358,10.083354436399999,0.15271630954950383,-0.07086036763096977,-0.3848450826114571,1756822734.284356
2.9336005076,-2.7661029256,9.9876415324,0.1954768762233649,-0.14172073526193954,-0.6304129083670593,1756822734.292353
2.931207685,-2.5651058272,10.3441720998,0.1881464933649887,-0.18448130193580065,-0.35430182070155636,1756822734.300373
2.7900311515999996,-2.6177479243999997,10.353743390199998,0.18692476288859272,-0.1624901533606721,-0.42394049276271517,1756822734.308422
2.9264220398,-2.6536402634,10.4757773428,0.3933972308528144,-0.24678955623199822,-0.43004911023811027,1756822734.316395
2.5531417142,-2.1990039693999996,10.4111711326,0.3237585587916556,-0.3005456797401311,-0.30543261909900765,1756822734.324384
2.87138712,-1.3088739621999999,10.3298151642,0.31398473243377983,-0.3518583772020568,-0.26267205242514663,1756822734.332386
2.7661029256,-0.9451649269999999,9.9924271776,0.22968532956245377,-0.40805796166298175,-0.22113321622768156,1756822734.340428
2.5914268758,-0.9379864591999999,9.4540420926,0.17348572764823636,-0.5033529562751646,-0.05742133239061344,1756822734.348371
2.3018953412,-0.5072783912,8.413164261599999,0.19181168479417682,-0.55710909723659,-0.24678955623199822,1756822734.356363
2.1918255016,-0.37328032559999996,7.989634661399999,0.1673770752662562,-0.6524040918487729,-0.10384709049366261,1756822734.364422
2.5100709074,-0.6197410534,7.757530869199999,0.17226399717184032,-0.7794640439406675,-0.26633724385433466,1756822734.372360
3.0101708308,-0.167497582,7.566105061199999,0.2345722514680379,-0.9101892398216279,-0.21746802479849348,1756822734.380347
3.0699913958,0.1268195978,7.7383882883999995,0.28099800957108706,-0.9505062931828194,-0.17715091907742445,1756822734.388433
3.6801611588,0.0095712904,8.3413795836,0.2700024352835228,-1.0164797912680825,-0.42027528388023455,1756822734.396358
4.1563328562,0.5216353268,8.1882389372,0.3005456797401311,-1.075122784321922,-0.1747074581246324,1756822734.404383
4.5750768112,0.7609175867999999,8.3677006322,0.33719761148530447,-1.0848966630396752,-0.34330626386728463,1756822734.412477
4.5032921331999995,0.8111668613999999,8.568697730599999,0.21380283336930536,-1.0433578093889175,-0.33231070703301285,1756822734.420364
5.235495848799999,1.0671988796,8.8965144268,0.16493361431346412,-1.0519099401769825,-0.4019493441875866,1756822734.428377
5.9030933542,1.7012968685999998,8.970691927399999,0.16859880574265224,-0.9834929985922196,-0.079412480965742,1756822734.436396
5.8408799666,1.4907284798,8.6093757148,0.10629055144645466,-0.8784242474353311,-0.09040805525330627,1756822734.444420
5.917450289799999,1.363908882,8.2408810344,0.08674286382411818,-0.7098253718795088,0.0757472895365539,1756822734.452364
6.1758751306,1.6199409001999998,8.111668614,0.11239920382843482,-0.635299882632521,0.14782938764391973,1756822734.460414
6.1782679532,2.4047867129999996,8.386843212999999,-0.12461650859239512,-0.3726277953007894,0.013439035240356337,1756822734.468397
6.439085616599999,2.5674986497999996,8.9539421692,-0.22357667718047364,-0.1514945790731078,0.11850785621041497,1756822734.476367
6.0849478718,3.038884702,9.0664048314,-0.417831840380735,0.17226399717184032,0.05253441048502932,1756822734.484364
5.778666578999999,3.026920589,9.4660062056,-0.40805796166298175,0.45937065912490754,-0.05497787143782138,1756822734.492417
5.2809594782,3.3308090592,9.678967416999999,-0.653625822325169,0.9492845627064234,-0.3616322035599326,1756822734.500370
4.9316073786,3.6705898684,9.750752095,-0.7513642255302664,1.1191051687386415,-0.4520402762665313,1756822734.508371
4.3286160834,3.1585258319999996,9.9876415324,-0.9627236154000721,1.5308282694709339,-0.49113563405791183,1756822734.516372
1.9597217094000001,2.2348963083999998,9.2697947524,-0.9663887893759677,1.783726443178327,-0.06963863715457375,1756822734.524372
3.3236305913999997,-0.0502492746,9.889535805799998,-0.3824016391119576,1.971873041263071,-0.35796702958403703,1756822734.532359
2.8498517165999995,1.124626622,8.879764668599998,-0.39828413530510604,2.157576073675268,-0.3249803241746367,1756822734.540382
2.3856441322,1.4404792051999997,8.133204017399999,-0.5400048880203381,2.245540685429074,-0.518013721991917,1756822734.548388
1.7012968685999998,0.7704888771999999,7.896314579999999,-0.5546656537370904,2.19300624003746,-0.44348816293175913,1756822734.556347
1.5290136414,0.3493520996,8.3892360356,-0.498466016916288,2.2797489816885306,-0.4740314248416599,1756822734.564380
1.1964112999999998,-0.346959277,9.767501853199999,-0.359188760060433,2.266310138434392,-0.46792275500638725,1756822734.572359
0.5455635528,-0.36849468039999994,10.9423777498,-0.2919935838586513,2.1123719762354445,-0.46792275500638725,1756822734.580385
0.062213387599999996,-0.5000999234,11.7056881592,-0.2736676267127109,1.9511035882577537,-0.4715879638888678,1756822734.588382
-0.5000999234,-1.0863414604,11.8181508214,-0.2565634000431664,1.783726443178327,-0.460592372148011,1756822734.596345
-1.1916256548,-2.0267207421999998,11.516655173799998,-0.18570303241219668,1.5772540973871532,-0.4776966337241405,1756822734.604411
-1.4620146085999999,-3.0101708308,11.057233234599998,-0.008552113334772215,1.4404202142176277,-0.4129449010218584,1756822734.612396
-1.4835500119999998,-3.852444386,10.628917989199998,0.19303341527057286,1.2522737383059315,-0.35796702958403703,1756822734.620372
-1.5337992865999999,-3.7208391429999996,10.253244840999999,0.26022859147235455,1.0213666782670816,-0.34697143784318024,1756822734.628396
-1.3328021881999998,-4.723431812399999,10.9064854108,0.6462954045602076,0.9676105198523638,-0.29565879274113194,1756822734.636369
-1.6366906583999998,-4.163511324,10.889735652599999,0.6401867696315201,0.7770205829878756,-0.2724458962363148,1756822734.644926
-2.3449661479999997,-2.3784656643999997,10.444670648999999,0.40561451816348215,0.47647486834115943,-0.2528982086139784,1756822734.652390
-2.428714939,-2.5938196984,11.200802590599999,0.24068090385001803,0.1637118838370681,-0.1954768762233649,1756822734.660371
-2.3306092123999997,-2.3976082452,11.341979124,0.13194689145077132,-0.10629055144645466,-0.16493361431346412,1756822734.668371
-2.2157537276,-2.7732813933999996,11.7104738044,0.24068090385001803,-0.2357939819444339,-0.1282817000215832,1756822734.676366
-2.2109680824,-2.9599215562,11.5286192868,0.2748893571891069,-0.33597588100890846,-0.035430183815484885,1756822734.684386
-1.7611174335999997,-2.6895326024,11.4424776732,0.3066543495754037,-0.44104470197896706,-0.0317649923862968,1756822734.692408
-1.7347963849999999,-2.1224336461999997,11.009376782599999,0.32009338481576005,-0.43493604959698695,0.07452555906015787,1756822734.700359
-1.519442351,-2.835494781,10.7892371034,0.20036379812894903,-0.4019493441875866,0.10629055144645466,1756822734.708395
-1.3567304141999998,-2.3952154225999998,10.1838529856,0.26267205242514663,-0.35552358608453744,0.12095131716320703,1756822734.716431
-1.2945170266000001,-2.7972096194,9.848857821600001,0.277332818141899,-0.2516764781375823,0.09529497715889039,1756822734.724357
-1.0073783146,-2.75174599,9.4660062056,0.3078760625985072,-0.14172073526193954,0.22968532956245377,1756822734.732434
-1.0432706536,-2.6584259086,9.267401929799998,0.4092797270459628,-0.09285151620609834,0.21868975527488949,1756822734.740852
-1.1030912186,-2.4454646972,9.1788674936,0.41905355340383854,0.008552113334772215,0.2541199390903744,1756822734.748377
-1.1820543644,-2.1487546948,9.339186607799999,0.49113563405791183,0.08429940287132612,0.32131511529215606,1756822734.756365
-1.4333007374,-1.9286150156,9.583254513,0.48136180770003606,0.1710422666954443,0.30421088862261164,1756822734.764424
-1.6342978357999998,-1.5050854154,9.7292166916,0.43127084071450633,0.26267205242514663,0.29688050576423547,1756822734.772394
-1.8735800958,-1.1054840412,9.8249295956,0.40561451816348215,0.318871654339364,0.2541199390903744,1756822734.780371
-2.1966111468,-0.7848458128,9.753144917599998,0.3885102914939378,0.33108894165003183,0.23212879051524585,1756822734.788389
-2.4789642136,-0.3158525832,9.4181497536,0.4288273972150068,0.3347541505325124,0.22968532956245377,1756822734.796395
-2.6057838114,0.3780659708,9.198010074399999,0.48136180770003606,0.30421088862261164,0.1466076571675237,1756822734.804413
-2.847458894,1.3328021881999998,9.121439751199999,0.43249260609748735,0.22846359908605773,0.1832595714594046,1756822734.812369
-3.1178478478,2.51246373,9.0616191862,0.3237585587916556,0.09407324668249435,0.08185594191853406,1756822734.820368
-3.2805597846,3.8069807566,9.0592263636,0.12217304763960307,-0.05742133239061344,0.040317105721069016,1756822734.828381
-3.4049865598,4.6971107638,9.375078946799999,-0.08918632477691024,-0.23701571242082994,0.05253441048502932,1756822734.836393
-3.2853454297999996,5.469992463599999,9.592825803399998,-0.37995817815916555,-0.5094616261104373,0.004886921905584123,1756822734.844684
-3.0699913958,5.469992463599999,9.674181771799999,-0.5900958375525753,-0.8613199509526166,0.023212879051524585,1756822734.852379
-2.6177479243999997,4.926821733399999,9.4827559638,-0.73792519028991,-1.2632692602336182,-0.009773843811168246,1756822734.860360
-2.1032910653999997,4.1850467274,9.0831545896,-0.915076126820627,-1.6530013171105369,-0.05009094953223726,1756822734.868370
-1.411765334,3.5988051904000002,8.5447695046,-0.9004153611038747,-2.002416303172972,-0.04520402762665313,1756822734.876359
-0.5024927459999999,3.0628129279999996,8.2480595022,-0.8564330639536175,-2.280970834337974,-0.09407324668249435,1756822734.884384
0.3780659708,2.3066809864,8.293523131599999,-0.8038986709218807,-2.531425424919528,-0.040317105721069016,1756822734.892400
1.5098710605999999,2.0602202586,8.8701933782,-0.6658431445424218,-2.6914723616735032,-0.008552113334772215,1756822734.900364
2.8977081686,2.3258235671999996,9.1022971704,-0.7257079378858273,-2.659707229660866,0.009773843811168246,1756822734.908378
4.0941194686,1.5816557386,10.813165329399999,-0.417831840380735,-2.53386888587232,-0.028099800957108706,1756822734.916391
4.6013978598,1.3375878333999998,11.160124606399998,-0.14172073526193954,-2.3994785858286343,-0.09407324668249435,1756822734.924356
4.9100719752,1.0935199281999999,10.925627991599999,-0.08185594191853406,-2.2125538403933342,-0.1111774733520388,1756822734.932388
4.9220360882,0.8590233133999999,10.705488312399998,0.04642575810304917,-1.9596556666859408,-0.2724458962363148,1756822734.940371
5.1637111708,0.4139583098,10.3704931484,-0.008552113334772215,-1.709200936478047,-0.34819320322616126,1756822734.948418
5.1302116544,-0.9714859755999999,10.2317094376,-0.025656340004316644,-1.4501940056689184,-0.4520402762665313,1756822734.956366
5.5609197223999995,-1.2801600909999997,9.949356370799999,0.1356120828799594,-1.0812314890637797,-0.45814892864851153,1756822734.964367
5.568098190199999,-1.0528419439999999,9.2769732202,0.14538592669112765,-0.7770205829878756,-0.5229006264442086,1756822734.972368
5.2498527844,-1.4333007374,9.209974187399999,0.040317105721069016,-0.6328563518665589,-0.577878532788615,1756822734.980367
5.137390122199999,-2.0673987264,9.3128655592,-0.09285151620609834,-0.4422664324553631,-0.5986479159807625,1756822734.988382
4.9818566531999995,-3.2255248647999997,9.556933464399998,-0.079412480965742,-0.24434609527920614,-0.6487388480597073,1756822734.996434
4.9124647978,-4.5678983434,9.7244310464,0.01710422666954443,0.008552113334772215,-0.6841690842350697,1756822735.004368
4.778466732199999,-5.587240771,9.870393224999999,0.22968532956245377,0.18692476288859272,-0.7696901652229142,1756822735.012377
4.845465764999999,-6.4319071488,10.181460162999999,0.5302310093025848,0.37018431689470477,-0.7880161921820248,1756822735.020354
4.622933263199999,-5.8073804502,10.085747258999998,0.613308681697515,0.28466318354698267,-0.8747590036462655,1756822735.028361
4.4721854394,-5.252245606999999,10.2029955664,0.5632177496185702,-0.028099800957108706,-0.9505062931828194,1756822735.036353
4.4530428586,-5.0919264928,10.5260266174,0.4288273972150068,-0.3909537524467298,-0.972497476664533,1756822735.044344
4.6133619728,-4.962714072399999,10.779665813,0.2907718533822553,-0.7330382858376184,-0.9309586230137754,1756822735.052366
4.8861437492,-5.0321059278,10.8682002492,0.2345722514680379,-1.0555751316061706,-0.9053022655561662,1756822735.060379
5.1613183482,-5.0201418148,10.693524199399999,0.1466076571675237,-1.313360262125733,-0.8564330639536175,1756822735.068361
5.5130632704,-4.869393991,10.2867443574,0.13805554383275148,-1.5430456615013568,-0.8051204013982768,1756822735.076375
5.7834522242,-4.4434715682,9.674181771799999,0.11606439525762292,-1.660331665062328,-0.7525859560066623,1756822735.084378
6.171089485399999,-3.9649070481999997,8.901300072,0.059864793343405505,-1.7397441983879478,-0.6572909963010645,1756822735.092347
6.479763600799999,-3.4002009145999996,8.190631759799999,0.059864793343405505,-1.748296276816135,-0.5888741245294717,1756822735.100357
6.824330055199999,-2.6703900216,7.4871419154,0.13805554383275148,-1.6578882215628286,-0.5241223918271897,1756822735.108367
6.9367927173999995,-1.2610175102,6.752545377199999,0.20158552860534507,-1.6383406212069547,-0.44837510229063576,1756822735.116356
7.262216591,-0.6245266986,6.879364975,0.2565634000431664,-1.529606538994538,-0.37384952577718544,1756822735.124353
7.348358204599999,0.23449661479999998,6.9487568304,0.43127084071450633,-1.3243557840534197,-0.29565879274113194,1756822735.132373
7.2598237683999995,1.5553346899999998,7.0085773954,0.5412266010434417,-1.0433578093889175,-0.23335052099164186,1756822735.140395
8.831908216599999,3.5629128513999997,6.8889362654,0.596204472481263,-0.6914994321868608,-0.1673770752662562,1756822735.148422
7.5924261098,4.2975093896,6.187839243599999,0.5033529562751646,-0.1795943800302165,-0.1282817000215832,1756822735.156362
7.4584280442,6.9320070722,5.893522063799999,0.24923301718479024,0.30543261909900765,0.007330382858376184,1756822735.164397
6.9080788462000005,4.0941194686,6.0083775485999995,0.318871654339364,0.9053022655561662,0.22602013813326566,1756822735.172382
6.4342999714,5.3024948815999995,6.8506511038,0.23335052099164186,1.358564219939216,0.3347541505325124,1756822735.180386
5.651846981199999,5.491527867,7.601997400199999,-0.06230825429619756,1.7959438352087502,0.4092797270459628,1756822735.188382
4.929214556,3.7447673689999994,7.752745224,-0.059864793343405505,2.236988467374547,0.49968774739268407,1756822735.196369
3.6945180944,5.1828537516,8.0590265168,0.0757472895365539,2.5546383388776372,0.555887366760194,1756822735.204374
1.6103696097999998,2.6991038927999997,8.8199441036,0.6401867696315201,2.8393015049713277,0.7489207820307667,1756822735.212367
0.38763726119999997,4.4913280202,8.9802632178,0.7648032782239153,2.7635542677946514,0.5717698280467574,1756822735.220363
-0.7968099258,4.242474469799999,9.2027957196,0.6731734924942129,2.586403453436982,0.6194173864393725,1756822735.228366
-1.3040883169999997,4.555934230399999,9.164510558,0.3726277953007894,2.2687535819338915,0.4544837546726159,1756822735.236375
-1.43569356,4.8000021356,9.549754996599999,0.06963863715457375,1.935221022251435,0.3237585587916556,1756822735.244432
-2.1320049365999996,2.5866412305999997,10.229316614999998,0.07208209810736581,1.661553395538724,0.5094616261104373,1756822735.252407
-2.4693929231999996,3.0340990567999997,10.817950974599999,0.07208209810736581,1.2205087459196349,0.37629296927668493,1756822735.260356
-2.3856441322,0.9403792818,11.3108724302,0.02199114857512855,1.0372491744602301,0.39217546546983334,1756822735.268362
-2.081755662,0.011964112999999998,11.2151595262,0.03298672286269283,0.8258898020437168,0.2724458962363148,1756822735.276331
-1.8975083218,-0.658026215,11.0979112188,0.0158824961931484,0.5681046540708617,0.23335052099164186,1756822735.284529
-1.9357934833999997,-1.686939933,11.4113709794,0.24068090385001803,0.34330626386728463,0.19914206765255302,1756822735.292362
-1.3734801724,-2.3880369548,11.700902514,0.41905355340383854,0.006108652381980153,0.2040289895581371,1756822735.300377
-1.0743773474,-2.7445675222,11.653046062,0.47525315531805595,-0.3824016391119576,0.14172073526193954,1756822735.308385
-0.6532405698,-2.7469603448,11.763115901599999,0.48136180770003606,-0.7501425125071628,0.1673770752662562,1756822735.316362
-0.2967100024,-2.8331019584,12.090932597799998,0.4789183642005365,-1.095892254780532,0.21013764194011728,1756822735.324372
0.26321048599999997,-2.6967110702,12.375678487199998,0.42149701435663056,-1.314581992602129,0.24434609527920614,1756822735.332419
0.981057266,-2.7684957482,12.466605745999999,0.3335324375094089,-1.3952162389508522,0.26633724385433466,1756822735.340364
1.8305092889999999,-2.6464617955999996,12.382856955,0.16126842288427606,-1.358564219939216,0.2577851305195625,1756822735.348396
2.3473589705999998,-2.9359933301999996,12.0023981616,0.01710422666954443,-1.1875220405102345,0.2577851305195625,1756822735.356386
2.6249263922,-2.9599215562,11.511869528599998,-0.007330382858376184,-0.9798278246163241,0.3237585587916556,1756822735.364366
2.7493531674,-3.3475588174,11.184052832399999,-0.1356120828799594,-0.7086036414031127,0.33108894165003183,1756822735.372384
2.9288148623999994,-2.8259234905999997,10.5930256502,-0.14538592669112765,-0.4471533718142397,0.31398473243377983,1756822735.380405
2.8570301843999997,-2.8187450228,10.468598874999998,-0.24923301718479024,-0.1747074581246324,0.30421088862261164,1756822735.388360
2.943171798,-2.5339991334,10.6073825858,-0.2736676267127109,0.12339477811599911,0.3103195584578843,1756822735.396347
2.7421746995999996,-2.5531417142,10.9136638786,-0.31398473243377983,0.3677408733952052,0.2712241657599188,1756822735.404401
2.6344976825999997,-2.3593230835999996,11.1577317838,-0.339641054984804,0.6377433261320204,0.32009338481576005,1756822735.412370
2.2803599377999997,-1.8951154991999999,11.169695896799999,-0.29565879274113194,0.813672479826464,0.2919935838586513,1756822735.420417
1.7587246109999999,-1.4069796888,10.980662911399998,-0.3457497073667842,0.9517280236592153,0.3103195584578843,1756822735.428418
1.1700902514,-0.8350950873999999,10.4877414558,-0.32009338481576005,1.0372491744602301,0.3005456797401311,1756822735.436407
0.44027935839999993,-0.37328032559999996,9.580861690399999,-0.26145032194875056,1.0335840004843346,0.26267205242514663,1756822735.444402
-0.24167508259999998,0.22013967919999997,8.528019746399998,-0.17837264955382048,0.9615018849236762,0.2712241657599188,1756822735.452397
-0.7345965381999999,0.9906285563999999,7.8364940149999995,0.013439035240356337,0.8173377236155296,0.2064724505109292,1756822735.460407
-1.1150553316,1.8807585636,7.4249285278,0.09529497715889039,0.678060379493212,0.16126842288427606,1756822735.468373
-1.3734801724,2.9144579268,7.0037917502,0.09651670763528643,0.5253441048502933,0.13194689145077132,1756822735.476367
-1.7802600144,3.7591243046,6.3625152934,0.0012217304763960308,0.3249803241746367,0.2223549467040776,1756822735.484413
-1.8640088054,4.8358944746,6.2763736798,-0.025656340004316644,0.029321531433504737,0.39828413530510604,1756822735.492666
-1.6007983193999997,4.9555356046,6.9702922337999995,-0.12583823906879116,-0.29443706226473587,0.34086282036778504,1756822735.500369
-1.1102696864,4.584648101599999,8.0805619202,-0.3262020546510327,-0.6291911778906633,0.36529741244241315,1756822735.508415
-0.5359922624,4.0749768878,8.9754775726,-0.47525315531805595,-0.9040805350797702,0.3518583772020568,1756822735.516362
0.23928226,3.6610185779999997,9.2267239456,-0.6108652381980153,-1.160643952576229,0.33108894165003183,1756822735.524383
0.993021379,3.2733813167999997,9.133403864199998,-0.7086036414031127,-1.3658947075173473,0.35674531656093345,1756822735.532373
1.8999011443999998,3.1776684127999997,9.1956172518,-0.6756169359937125,-1.5418237913986206,0.359188760060433,1756822735.540363
2.7924239741999997,3.2279176873999997,9.741180804599999,-0.7244861375962612,-1.654223047586933,0.4899139210348083,1756822735.548393
3.4648071248,3.1968109935999998,10.408778309999999,-0.6829473537586737,-1.6639968390382236,0.4899139210348083,1756822735.556360
4.031906081,2.7780670385999997,10.801201216399999,-0.6023130899566581,-1.6077973592970538,0.555887366760194,1756822735.564372
4.3860438258,2.1822542112,10.492527100999999,-0.4740314248416599,-1.5332717129704334,0.5155702784924174,1756822735.572367
4.658825602199999,1.4309079147999997,9.9326066126,-0.2797762965479835,-1.4233160573612533,0.4422664324553631,1756822735.580416
4.7521456836,0.5958128274,9.619146851999998,-0.13194689145077132,-1.3084733576734413,0.4141666314982544,1756822735.588359
4.809573425999999,-0.05503491979999999,9.6263253198,0.08307767239493008,-1.209513223991948,0.2272418686096617,1756822735.596376
4.9124647978,-0.6029912951999999,10.0474620974,0.17837264955382048,-1.0861183935160712,0.10140362954087054,1756822735.604436
5.0943193154,-1.0049854919999999,10.636096457,0.17226399717184032,-0.9236282052488142,-0.07696902001294993,1756822735.612382
5.2618168974,-1.3351950108,11.090732751,0.1881464933649887,-0.7635815477475192,-0.2590068609959585,1756822735.620352
5.300102059,-1.6725829974,11.1050896866,0.13316862192716733,-0.6023130899566581,-0.37140608227768585,1756822735.628347
5.1302116544,-2.2348963083999998,10.7270237158,0.12583823906879116,-0.40805796166298175,-0.5106833391335408,1756822735.636491
5.0177489922,-3.0604201054,10.346564922399999,0.1392772743091475,-0.3066543495754037,-0.6279694648675597,1756822735.644361
4.938785846399999,-3.8572300312,9.9828558872,0.14172073526193954,-0.24801128670839426,-0.73792519028991,1756822735.652438
5.022534637399999,-4.591826569399999,9.810572659999998,0.2309070600388498,-0.2675589743307307,-0.8796459779117272,1756822735.660395
5.192425041999999,-5.0512485086,9.853643466799998,0.2712241657599188,-0.30421088862261164,-0.8930849433389134,1756822735.668383
5.3934221404,-5.2091748002,9.961320483799998,0.32986722862692824,-0.4141666314982544,-0.9834929985922196,1756822735.676401
5.635097223,-5.1876393968,10.0163554036,0.33719761148530447,-0.5766568023122189,-1.017701504291186,1756822735.684500
6.0203416616,-5.0560341538,9.985248709799999,0.3127630019573839,-0.7391469033130135,-0.9480628496833198,1756822735.692358
6.3242301318,-4.8215375389999995,9.7196454012,0.2577851305195625,-0.9004153611038747,-0.9602801544472802,1756822735.700365
6.515655939799999,-4.5678983434,9.2793660428,0.1624901533606721,-1.059240305582066,-0.8271115150668203,1756822735.708403
6.6951176348,-4.3262232608,8.779266119399999,0.06230825429619756,-1.1960741189384216,-0.7037167544041136,1756822735.716367
6.7453669093999995,-3.9816568063999997,8.3748791,-0.009773843811168246,-1.2534954687823274,-0.6010913769335546,1756822735.724421
6.826722877799999,-3.6729826909999996,7.889136112199999,-0.03298672286269283,-1.2266173808483223,-0.48136180770003606,1756822735.732425
6.7812592484,-3.2350961552,7.3292156238,0.02076941809873252,-1.1728612049803118,-0.37995817815916555,1756822735.740359
6.723831506,-2.691925425,6.7022961026,0.023212879051524585,-1.0665707233470272,-0.29565879274113194,1756822735.748435
6.7621166676,-2.1104695332,6.415157390599999,0.13194689145077132,-0.9517280236592153,-0.22968532956245377,1756822735.756367
6.8889362654,-1.3591232368,6.317051663999999,0.2431243648028101,-0.8148942103028599,-0.1356120828799594,1756822735.764400
7.056433847399999,-0.5264209719999999,6.4917277138,0.3066543495754037,-0.6548475353482724,-0.004886921905584123,1756822735.772360
7.089933363799999,0.4474578262,6.731009973799999,0.4373794930964865,-0.5094616261104373,0.04642575810304917,1756822735.780391
6.9367927173999995,1.5074782379999998,6.687939167,0.49113563405791183,-0.29443706226473587,0.16615534478986016,1756822735.788426
6.7932233614,2.6751756667999995,6.4558353747999995,0.5864305937635097,-0.030543261909900768,0.1673770752662562,1756822735.796407
6.6568324732,3.445664544,6.1758751306,0.5900958375525753,0.19914206765255302,0.24190263432641407,1756822735.804363
6.5012990042,3.960121403,5.9509498062,0.5216788959678126,0.4495968153137393,0.3665191429188092,1756822735.812405
6.4103717454,4.1970108404,6.0562340006,0.455705485149012,0.6829473537586737,0.5094616261104373,1756822735.820363
6.2189459374,4.4769710846,6.7549381998,0.29443706226473587,0.9199630312729187,0.6072000642221197,1756822735.828367
5.9653067418,4.524827536599999,7.893921757399999,0.2565634000431664,1.2217304763960306,0.7012732934513216,1756822735.836373
5.290530768599999,4.9842494758,8.7864445872,0.1356120828799594,1.5210544780196433,0.8210028975914251,1756822735.844388
4.3956151162,5.4747781088,8.9994057986,-0.03665191429188092,1.8301522710945464,0.7501425125071628,1756822735.852369
3.8237305147999994,5.7092747236,8.841479507,-0.1710422666954443,2.1673498651265586,0.6756169359937125,1756822735.860418
3.3092736557999998,5.8217373858,8.6548393442,-0.3262020546510327,2.43613060484027,0.5742133588127195,1756822735.868359
3.026920589,5.582455125799999,8.566304908,-0.3665191429188092,2.6804767001194767,0.5155702784924174,1756822735.876389
2.524427843,5.0632126216,8.774480474199999,-0.42149701435663056,2.8576275144771457,0.4422664324553631,1756822735.884433
1.8568303376,4.5439701174,9.157332090199999,-0.4386012235728825,2.9150489864940994,0.3420845333908886,1756822735.892363
1.3423734786,3.4169506728,9.714859756,-0.41905355340383854,2.871066619530672,0.23945917337362202,1756822735.900358
0.7633104094,1.8903298539999998,10.384850083999998,-0.33597588100890846,2.849075558222006,0.16982053621904827,1756822735.908370
0.2943171798,0.2919243572,10.6863457316,-0.11850785621041497,2.775771520198734,0.06597344572538566,1756822735.916434
-0.2703889538,-1.0456634761999999,10.9423777498,0.04520402762665313,2.6572637861613666,0.05619960191421741,1756822735.924648
-0.7872386353999999,-2.1918255016,11.2630159782,0.2858849140233787,2.4996605721595713,0.1282817000215832,1756822735.932352
-1.2634103328,-2.8498517165999995,11.834900579599998,0.55710909723659,2.2846358861408222,0.19058995431778078,1756822735.940426
-1.5816557386,-3.1800612353999997,12.466605745999999,0.7415904340789756,1.993864102571737,0.31642817593327943,1756822735.948565
-1.6965112234,-3.2566315585999996,12.916456394799999,0.9065239960325623,1.6420057951828502,0.2748893571891069,1756822735.956403
-1.8424734019999998,-2.931207685,12.8949209914,0.8869763258635183,1.2412782163782448,0.2993239667170275,1756822735.964386
-1.91425808,-2.6344976825999997,12.753744457999998,0.6304129083670593,0.7941248096574199,0.41661010990433894,1756822735.972362
-2.2755742926,-2.8857440556,12.959527201599998,0.6633996137764597,0.4105014400690663,0.5216788959678126,1756822735.980391
-2.3162522768,-2.9192435719999996,12.949955911199998,0.5143485131094364,0.048869219055841226,0.6524040918487729,1756822735.988412
-1.91425808,-3.0197421211999997,12.727423409399998,0.3457497073667842,-0.2272418686096617,0.7232644245731576,1756822735.996418
-1.3208380752,-3.2757741393999997,12.5766755856,0.23701571242082994,-0.4043927876870862,0.77335540901198,1756822736.004367
-0.8183453291999999,-3.2781669620000002,12.3254292126,0.18081611050661253,-0.5302310093025848,0.877202447145765,1756822736.012408
-0.48095734259999995,-3.1704899449999995,11.9330063062,0.09529497715889039,-0.6511823613723768,0.8723155601467658,1756822736.020378
-0.22492532440000002,-3.1992038162,11.4711915444,-0.06963863715457375,-0.6548475353482724,0.9162978572970231,1756822736.028333
0.08135596839999999,-3.3164521235999995,11.1074825092,-0.12950343049797924,-0.613308681697515,0.8906414998394138,1756822736.036353
0.15074782379999999,-3.2231320422,10.707881135000001,-0.21135937241651329,-0.5400048880203381,0.8833111518876227,1756822736.044346
0.2105683888,-3.1465617189999997,10.274780244399999,-0.2907718533822553,-0.4276056667386107,0.858876507453117,1756822736.052362
0.2105683888,-3.1274191382,9.7579305628,-0.30543261909900765,-0.26145032194875056,0.7929030791810239,1756822736.060379
0.11246266220000001,-2.9144579268,9.3846502372,-0.35552358608453744,-0.10262536001726658,0.7672467217234148,1756822736.068358
-0.2177468566,-2.5746771176,9.090333057399999,-0.27611108766550296,0.058643062867009474,0.698829849951822,1756822736.076369
-0.5000999234,-2.1559331626,8.805587168,-0.13194689145077132,0.18570303241219668,0.6462954045602076,1756822736.084348
-0.8183453291999999,-1.7659030788,8.1978102276,0.009773843811168246,0.33841932450840795,0.5644394800949663,1756822736.092351
-1.1724830739999998,-1.1964112999999998,7.381857720999999,0.2834414705238791,0.37629296927668493,0.48380525119953566,1756822736.100370
-1.4021940436,-0.2656033086,6.7621166676,0.5045746867515607,0.3860668479944382,0.4386012235728825,1756822736.108345
-1.722832272,1.1940184774,6.3744794064,0.6487388480597073,0.29688050576423547,0.3750712562535814,1756822736.116358
-2.1008982428,2.8809584103999994,6.3242301318,0.6524040918487729,0.18570303241219668,0.3885102914939378,1756822736.124361
-2.5914268758,4.2855452766,6.3696937612,0.4654793115068877,0.028099800957108706,0.4508185457901353,1756822736.132331
-2.7421746995999996,4.754538506199999,6.731009973799999,0.26511551337793865,-0.32864549815053223,0.31154127148098787,1756822736.140406
-2.5339991334,4.6612184247999995,7.3603223176,-0.1637118838370681,-0.698829849951822,0.277332818141899,1756822736.148386
-2.2995025185999998,4.295116567,8.0374911134,-0.43371431912059094,-1.1191051687386415,0.16615534478986016,1756822736.156378
-1.4763715441999998,3.8715869667999994,8.7673020064,-0.6963864064523225,-1.436755040241732,0.06597344572538566,1756822736.164417
-0.45224347139999993,3.6849468039999995,9.2147598326,-0.8527678899777219,-1.7263052329607615,0.05253441048502932,1756822736.172384
0.5814558917999999,3.7399817237999997,9.5425765288,-0.8857545953871222,-1.9828685806440502,0.079412480965742,1756822736.180387
1.5840485612,3.6442688197999997,10.042676452199998,-0.8405505677604691,-2.2492057197786295,0.19303341527057286,1756822736.188381
2.5387847785999997,3.6610185779999997,10.4374921812,-0.6511823613723768,-2.5216516334682373,0.28466318354698267,1756822736.196406
3.5365918028,3.5916267226,10.7126667802,-0.5265658353266892,-2.7684411722469426,0.3494149162492648,1756822736.204395
4.1539400336,3.2805597846,10.5547404886,-0.4227187273797341,-2.9394834913022647,0.36285396894291366,1756822736.212381
4.582255279,2.8378876035999996,10.0905329042,-0.2528982086139784,-3.0445523820854934,0.2577851305195625,1756822736.220396
5.1661039934,2.3928225999999997,9.547362174,-0.16859880574265224,-3.000570015122066,0.08429940287132612,1756822736.228364
5.7499527077999995,1.8999011443999998,9.1956172518,-0.01710422666954443,-2.836858044018536,-0.079412480965742,1756822736.236364
6.2333028729999995,1.4859428345999999,9.193224429199999,0.06719517620178168,-2.5839600099374826,-0.23335052099164186,1756822736.244695
6.654439650599999,1.0983055734,9.403792818,0.0916297857297023,-2.2907446432425576,-0.3420845333908886,1756822736.252383
6.9104716688,0.40917266459999996,9.7005028204,0.12095131716320703,-1.9437732403059622,-0.4776966337241405,1756822736.260372
7.0253271536,-0.33738798659999997,9.9397850804,0.0916297857297023,-1.5845844453389444,-0.5827654197876142,1756822736.268395
7.381857720999999,-1.3088739621999999,10.0761759686,0.12095131716320703,-1.2461651208305364,-0.700051580428218,1756822736.276335
7.640282561799999,-2.285145583,10.004391290600001,0.1551597705022959,-0.9346237969896709,-0.8271115150668203,1756822736.284339
7.877171999199999,-3.2350961552,9.6406822554,0.21746802479849348,-0.6682865880419212,-0.8820894214112266,1756822736.292338
7.8341011923999995,-4.175475436999999,9.260223461999999,0.29688050576423547,-0.5143485131094364,-0.9187413007965226,1756822736.300373
7.855636595799999,-4.785645199999999,9.147760799799999,0.36285396894291366,-0.43127084071450633,-0.9957103208094725,1756822736.308421
7.9322069189999995,-5.1828537516,9.2578306394,0.455705485149012,-0.43493604959698695,-1.017701504291186,1756822736.316375
8.2002030502,-5.407779076,9.5162554802,0.5119050696099369,-0.43493604959698695,-0.9957103208094725,1756822736.324397
8.4658063588,-5.699703433199999,9.678967416999999,0.49724430389318447,-0.49113563405791183,-0.9309586230137754,1756822736.332377
8.6596249894,-5.680560852399999,9.714859756,0.5119050696099369,-0.5595525756426746,-0.8491027160018264,1756822736.340361
8.5998044244,-5.603990529199999,9.523433948,0.359188760060433,-0.6707300315414209,-0.6646214140660257,1756822736.348464
8.5639120854,-5.508277625199999,9.267401929799998,0.3017674451231121,-0.7721336959888764,-0.5338962181850654,1756822736.356370
8.4562350684,-5.0321059278,8.908478539799999,0.24678955623199822,-0.8319984195191118,-0.44348816293175913,1756822736.364381
8.3677006322,-4.5535414078,8.685946037999999,0.2223549467040776,-0.8283332455432163,-0.30909779307490326,1756822736.372354
7.9633136127999995,-3.649054465,8.2863446638,0.31398473243377983,-0.7672467217234148,-0.17837264955382048,1756822736.380371
7.8628150636,-2.8402804261999997,8.2815590186,0.4386012235728825,-0.6157521426503069,-0.05253441048502932,1756822736.388387
8.123632727,-1.7563317884,8.1619178886,0.4776966337241405,-0.44104470197896706,-0.04153883619746504,1756822736.396419
8.044669581199999,-0.5383850849999999,7.408178769599999,0.21991148575128552,-0.30421088862261164,0.01710422666954443,1756822736.404371
7.508677318799999,0.9403792818,6.759723845,0.21624629432209744,-0.06719517620178168,0.12461650859239512,1756822736.412388
7.5565337708,1.8951154991999999,6.2500526312,0.23701571242082994,0.15760323145508795,0.12217304763960307,1756822736.420376
7.247859655399999,2.8259234905999997,5.714060368799999,0.058643062867009474,0.40683623118658574,0.2577851305195625,1756822736.428376
6.963113765999999,3.3547372851999997,5.1637111708,-0.058643062867009474,0.6951646759759265,0.29321529688175485,1756822736.436381
6.592226263,3.6251262389999996,4.953142782,-0.17837264955382048,0.9395107712551326,0.4019493441875866,1756822736.444384
6.1399827916,3.9074793057999995,4.9579284272,-0.19058995431778078,1.2144001284442394,0.5057964172279568,1756822736.452386
5.812166095399999,3.5748769644,5.0273202826,-0.10262536001726658,1.415985569783122,0.5607743061190706,1756822736.460368
5.192425041999999,3.9577285803999995,5.374279559599999,-0.1747074581246324,1.5454891050008563,0.6499606483492734,1756822736.468404
4.66600407,4.3597227772,6.183053598399999,-0.1881464933649887,1.692096657448625,0.6267477343911637,1756822736.476386
4.007977855,4.8981078622,6.8769721524,-0.21991148575128552,1.8533651675993636,0.5766568023122189,1756822736.484360
3.2374889777999996,5.544169964199999,7.250252477999999,-0.3152064454568834,2.0696114619214607,0.4899139210348083,1756822736.492376
2.6177479243999997,5.9629139192,7.5349983674,-0.378736465136062,2.238210320023991,0.3995058483282095,1756822736.500415
2.2468604213999996,6.111268920399999,7.858029418399999,-0.5326744877086693,2.3872613334245516,0.29565879274113194,1756822736.508373
1.7898313048,5.7954163372,8.1403824852,-0.5143485131094364,2.5167647290159456,0.21013764194011728,1756822736.516374
1.3854442854,5.2785666556,8.3796647452,-0.4740314248416599,2.555860191527081,0.1942551457469689,1756822736.524419
0.8685946038,4.6348973762,8.805587168,-0.5033529562751646,2.5069909201113623,0.14538592669112765,1756822736.532347
0.45463629399999994,3.6753755135999997,9.3056870914,-0.4642575810304917,2.433687143887478,0.11728612573401895,1756822736.540393
0.0861416136,1.9692929997999997,9.8799645154,-0.2565634000431664,2.3921482378768433,0.19914206765255302,1756822736.548414
-0.5790630692,0.5168496816,10.4590275846,-0.03298672286269283,2.239431928327339,0.18692476288859272,1756822736.556374
-0.9834500885999999,-0.9092725879999999,11.114660977,0.14782938764391973,2.09526781937907,0.19058995431778078,1756822736.564366
-1.1198409768,-1.8807585636,11.858828805599998,0.31642817593327943,1.8668041504798423,0.22602013813326566,1756822736.572387
-1.232303639,-2.3760728418,12.6891382478,0.5241223918271897,1.5406020783755172,0.2223549467040776,1756822736.580362
-1.2346964615999998,-2.5674986497999996,13.153345832199998,0.5888741245294717,1.154535335100834,0.23945917337362202,1756822736.588384
-1.0528419439999999,-2.7732813933999996,13.301700833399998,0.6560692658246685,0.6927211626632569,0.21013764194011728,1756822736.596397
-0.7465606511999999,-3.1441688964,13.0791683316,0.6695083185183173,0.2541199390903744,0.2577851305195625,1756822736.604377
-0.38524443859999996,-3.5413774479999995,12.777672683999999,0.6756169359937125,-0.11728612573401895,0.278554548618295,1756822736.612390
-0.040677984199999996,-3.9457644673999996,12.6963167156,0.6866125277345693,-0.37140608227768585,0.31398473243377983,1756822736.620390
0.2919243572,-4.0941194686,12.705888005999999,0.6682865880419212,-0.49724430389318447,0.3274237676741362,1756822736.628375
0.562313311,-4.168296969199999,12.5934253438,0.6475171175833112,-0.5143485131094364,0.37995817815916555,1756822736.636378
0.825523797,-4.2568314054,12.3852497776,0.5705481150236538,-0.5082398956340413,0.39828413530510604,1756822736.644398
1.0576275892,-4.390829471,12.2488588894,0.4789183642005365,-0.4667010419832837,0.4251622232391112,1756822736.652458
1.2993026717999998,-4.3334017286,12.1220392916,0.4227187273797341,-0.42149701435663056,0.4129449010218584,1756822736.660359
1.4883356571999997,-4.010370677599999,11.980862758199999,0.3335324375094089,-0.3726277953007894,0.40805796166298175,1756822736.668361
1.5720844482,-3.5605200288,11.815757998799999,0.3274237676741362,-0.2834414705238791,0.43493604959698695,1756822736.676388
1.5960126742,-3.0293134116,11.598011142199999,0.21135937241651329,-0.22479840765686965,0.44348816293175913,1756822736.684373
1.4979069475999998,-2.6416761504,11.404192511599998,0.079412480965742,-0.1392772743091475,0.46792275500638725,1756822736.692351
1.3615160593999998,-2.4239292938,10.925627991599999,-0.028099800957108706,-0.11606439525762292,0.47647486834115943,1756822736.700376
1.1509476706,-1.8472590472,10.492527100999999,-0.20525072003453315,-0.06475171524898962,0.44104470197896706,1756822736.708360
1.0025926693999998,-1.2921242039999998,10.456634761999998,-0.14172073526193954,0.019547687622336492,0.4153883445213579,1756822736.716367
0.7130611348,-0.4211367776,9.999605645399999,-0.1881464933649887,0.1075122819228507,0.3262020546510327,1756822736.724424
0.44027935839999993,0.18424734019999997,9.209974187399999,-0.21624629432209744,0.17715091907742445,0.28710667940635975,1756822736.732344
0.2440679052,0.7680960546,8.0781690976,-0.1747074581246324,0.24434609527920614,0.13805554383275148,1756822736.740404
0.15074782379999999,1.3902299305999999,6.884150620199999,-0.09651670763528643,0.28832839242946323,0.05375614096142535,1756822736.748395
0.0334995164,2.0554346134,5.8073804502,-0.0024434609527920616,0.3347541505325124,0.025656340004316644,1756822736.756381
-0.083748791,3.1082765574,5.137390122199999,0.026878070480712675,0.4422664324553631,-0.004886921905584123,1756822736.764365
-0.46660040699999994,4.1563328562,4.989035121,0.06597344572538566,0.5644394800949663,0.09529497715889039,1756822736.772387
-0.861416136,4.8023949582,5.233103026199999,0.08918632477691024,0.577878532788615,0.14416419621473162,1756822736.780373
-1.0528419439999999,4.8191447164,5.845665611799999,-0.07208209810736581,0.43004911023811027,0.0916297857297023,1756822736.788390
-1.0289137179999999,4.6013978598,6.5635123918,-0.2040289895581371,0.16004669240788003,0.03787364476827695,1756822736.796366
-0.9164510557999999,4.366901244999999,7.527819899599999,-0.29688050576423547,-0.17837264955382048,0.028099800957108706,1756822736.804431
-0.6604190376,4.2568314054,8.3437724062,-0.4386012235728825,-0.5595525756426746,0.03420845333908886,1756822736.812364
-0.22013967919999997,4.3046878574,9.0711904766,-0.4618141026244071,-0.8491027160018264,0.03665191429188092,1756822736.820381
0.430708068,4.4841495524,9.8560362894,-0.5241223918271897,-1.077566315087884,0.06963863715457375,1756822736.828395
1.2729816232,4.7593241513999995,10.6791672638,-0.5241223918271897,-1.276708382740437,0.13805554383275148,1756822736.836375
2.2707886474,4.8909293944,11.2965154946,-0.5925392985053675,-1.415985569783122,0.1551597705022959,1756822736.844387
3.0077780082,4.6085763276,11.241480574799999,-0.6010913769335546,-1.5662584358331264,0.19914206765255302,1756822736.852473
3.4839497056,3.9026936606,10.4877414558,-0.49480084294039245,-1.6701055961399591,0.2357939819444339,1756822736.860369
3.9098721283999995,3.2303105100000002,9.870393224999999,-0.35552358608453744,-1.7715091907742444,0.1759291886010284,1756822736.868366
4.2759739862,2.5507488916,9.6837530622,-0.18081611050661253,-1.842369523498629,0.13194689145077132,1756822736.876359
4.524827536599999,1.8568303376,9.738787982,-0.08185594191853406,-1.8216001926663592,0.07208209810736581,1756822736.884374
4.4769710846,1.0671988796,10.157531936999998,0.0,-1.7983872787082498,-0.0635299847725936,1756822736.892388
4.560719875599999,-0.007178467799999999,10.657631860399999,0.05619960191421741,-1.7617353818696615,-0.1954768762233649,1756822736.900406
4.687539473399999,-1.1485548479999999,11.085947105799999,0.10018189906447451,-1.6701055961399591,-0.40317105721069013,1756822736.908360
5.02492746,-2.4047867129999996,11.289337026799998,0.158824961931484,-1.5784758104102568,-0.6023130899566581,1756822736.916364
5.446064237599999,-3.6107693034,11.184052832399999,0.2309070600388498,-1.4978415640615335,-0.7855726614160627,1756822736.924411
5.8600225474,-4.338187373799999,10.851450491,0.2748893571891069,-1.492954659609242,-0.955393267448281,1756822736.932441
6.2356956956,-4.8191447164,10.432706535999998,0.3530801076784529,-1.5894713497912358,-1.0946705243041361,1756822736.940367
6.673582231399999,-5.2498527844,10.186245808199999,0.3494149162492648,-1.6420057951828502,-1.1472049696957503,1756822736.948377
7.202396026,-5.544169964199999,10.006784113199998,0.4153883445213579,-1.7654005732988494,-1.2217304763960306,1756822736.956462
7.635496916599999,-5.491527867,9.887142983199999,0.38973202197033374,-1.8411477930222333,-1.1985175624379212,1756822736.964364
8.25523797,-5.4006006081999995,9.7914300792,0.28710667940635975,-1.9010125863656389,-1.1960741189384216,1756822736.972359
8.7409809578,-5.041677218199999,9.513862657599999,0.20525072003453315,-1.9437732403059622,-1.1032226027323233,1756822736.980407
9.1908316066,-4.7306102802,9.2267239456,0.023212879051524585,-1.9132299783960616,-0.9859365293581818,1756822736.988361
9.4061856406,-4.2783668087999995,8.8606220878,-0.05131268000863329,-1.8154914355646241,-0.8576547769767211,1756822736.996436
9.509077012399999,-3.7639099497999995,8.2815590186,-0.08429940287132612,-1.6652187091409598,-0.7073819283800092,1756822737.004403
9.4683990282,-2.9479574431999995,7.5541409482,-0.1270599695451872,-1.4501940056689184,-0.6120869686744114,1756822737.012371
9.3607220112,-2.0721843715999997,6.7812592484,-0.0757472895365539,-1.1582005090767296,-0.5302310093025848,1756822737.020428
9.188438783999999,-1.0265208954,6.0705909361999995,-0.08918632477691024,-0.8808676909348307,-0.4263839362622147,1756822737.028342
9.0113699116,0.0047856452,5.5298130286000005,0.003665191429188092,-0.575435071835823,-0.3249803241746367,1756822737.036353
8.8917287816,1.2035897677999998,5.326423107599999,0.059864793343405505,-0.2724458962363148,-0.16126842288427606,1756822737.044369
8.7433737804,2.4358934068,5.3407800432,0.06230825429619756,0.029321531433504737,-0.05375614096142535,1756822737.052616
8.434699665,3.3834511563999996,5.6279187552,0.07696902001294993,0.2907718533822553,0.1637118838370681,1756822737.060356
8.061419339399999,3.9170505961999997,5.7044890784,0.05009094953223726,0.5204571829447091,0.34086282036778504,1756822737.068372
7.3603223176,4.1180476945999995,5.5609197223999995,0.0439822971502571,0.7977899836333155,0.4386012235728825,1756822737.076348
6.6807606991999995,3.9744783385999995,5.312066172,0.0158824961931484,1.0348057309607304,0.6548475353482724,1756822737.084363
5.761916820799999,3.8620156764,5.2761738330000005,-0.007330382858376184,1.2473868338536398,0.7049384674272172,1756822737.092345
5.168496815999999,3.900300838,5.5609197223999995,-0.058643062867009474,1.4844025811810548,0.7342600163140145,1756822737.100369
4.7066820542,4.3262232608,6.4223358584,-0.10873401239924674,1.7580702078937656,0.6560692658246685,1756822737.108362
4.2903309218,4.9005006848,6.996613282399999,-0.13683381335635544,2.0525071654387466,0.5656612105713621,1756822737.116339
3.7471601916,5.26420972,6.824330055199999,-0.2565634000431664,2.299296843843792,0.4386012235728825,1756822737.124351
3.0556344601999994,5.0129633469999995,6.412764567999999,-0.40561451816348215,2.430021847738535,0.3103195584578843,1756822737.132339
2.6105694566,4.8047877808,6.340979889999999,-0.3530801076784529,2.5289819814200283,0.2553416695667704,1756822737.140421
2.2396819536,4.493720842799999,7.0133630406,-0.30298917559950816,2.634050872203257,0.19058995431778078,1756822737.148374
1.8975083218,4.2305103568,7.858029418399999,-0.07696902001294993,2.6291639677509653,0.16004669240788003,1756822737.156374
1.6366906583999998,3.9984065645999993,9.147760799799999,-0.006108652381980153,2.552194895378138,0.14294246573833558,1756822737.164375
1.3806586401999998,3.4121650275999995,10.4231352456,-0.0158824961931484,2.350609314412915,0.12217304763960307,1756822737.172384
0.969093153,2.5387847785999997,11.1577317838,-0.12950343049797924,2.0635028269927735,0.09773843811168245,1756822737.180384
0.6364908116,1.2418749294,11.2965154946,-0.2565634000431664,1.7690657472747449,0.03665191429188092,1756822737.188382
0.3062812928,0.007178467799999999,11.375478640399999,-0.1710422666954443,1.47585038057982,-0.025656340004316644,1756822737.196383
0.5982056499999999,-2.4335005842,11.5310121094,0.01710422666954443,1.2669344342095137,-0.07452555906015787,1756822737.204374
0.3038884702,-3.2350961552,12.2680014702,0.39828413530510604,1.0274753131957692,-0.05253441048502932,1756822737.212358
0.23449661479999998,-3.1058837348,13.222737687599999,0.7024950239277177,0.7586946432952276,-0.07330382858376185,1756822737.220389
0.37088750299999995,-2.7661029256,13.617553416599998,0.7831292179165632,0.5106833391335408,-0.0012217304763960308,1756822737.228383
0.7202396025999999,-2.4837498588,13.3232362368,0.7562511997957281,0.30543261909900765,0.03420845333908886,1756822737.236411
1.1030912186,-2.51246373,13.1629171226,0.6731734924942129,0.1710422666954443,0.1282817000215832,1756822737.244378
1.3423734786,-2.3617159061999997,13.253844381399999,0.6255260039147678,0.13072516097437528,0.21013764194011728,1756822737.252380
1.4691930763999999,-2.4023938904,13.3567357532,0.5412266010434417,0.03787364476827695,0.3262020546510327,1756822737.260369
1.6031911419999998,-2.4358934068,13.339985995,0.4386012235728825,0.0024434609527920616,0.43127084071450633,1756822737.268347
1.8305092889999999,-2.5483560689999996,13.098310912399999,0.3335324375094089,-0.07086036763096977,0.44348816293175913,1756822737.276361
2.0626130812,-2.5818555854,12.6723884896,0.2272418686096617,-0.11728612573401895,0.5705481150236538,1756822737.284341
2.1750757434,-2.5028924396,12.220145018199998,0.11239920382843482,-0.1624901533606721,0.6829473537586737,1756822737.292349
2.1080767106,-2.2588245344,11.763115901599999,0.003665191429188092,-0.1759291886010284,0.8063421318746727,1756822737.300379
1.8281164663999998,-2.2205393728,11.4951197704,-0.06230825429619756,-0.1747074581246324,0.9040805350797702,1756822737.308367
1.746760498,-2.2181465501999997,10.9974126696,-0.12339477811599911,-0.12339477811599911,0.9126326833211273,1756822737.316381
1.7060825137999998,-2.2564317118,10.2604233088,-0.0879645943005142,0.04153883619746504,0.8747590036462655,1756822737.324414
1.5218351735999998,-1.6295121905999999,9.3296153174,-0.13805554383275148,0.20036379812894903,0.8197811671150291,1756822737.332345
1.1916256548,-0.9786644433999999,8.6428752312,-0.20158552860534507,0.3933972308528144,0.7538076864830584,1756822737.340426
0.8039883936,-0.346959277,8.1571322434,-0.30909779307490326,0.5900958375525753,0.7281513813853269,1756822737.348373
0.3302095188,0.13160524299999998,7.664210787799999,-0.30298917559950816,0.8210028975914251,0.6072000642221197,1756822737.356359
-0.0885344362,0.5838487144,7.0013989275999995,-0.21380283336930536,0.955393267448281,0.5094616261104373,1756822737.364362
-0.4378865357999999,0.9978070242,6.1926248888,-0.10262536001726658,1.0836749325632793,0.3530801076784529,1756822737.372403
-0.7322037155999999,1.6031911419999998,5.3431728658,0.11239920382843482,1.1288789601899325,0.28099800957108706,1756822737.380361
-1.0959127508,2.3856441322,4.8717868136,0.22479840765686965,1.1301006906663285,0.26145032194875056,1756822737.388414
-1.5361921092,3.1992038162,5.1158547188,0.359188760060433,1.0531316706533784,0.28466318354698267,1756822737.396413
-1.950150419,3.7184463204,5.678168029799999,0.31398473243377983,0.8429940112599686,0.2907718533822553,1756822737.404401
-2.213360905,3.7471601916,6.6855463444,0.2528982086139784,0.5143485131094364,0.24801128670839426,1756822737.412382
-2.3114666315999997,3.493520996,7.5924261098,0.20158552860534507,0.08918632477691024,0.10506882097005864,1756822737.420369
-2.3832513096,3.6083764807999996,8.4610207136,0.0,-0.39584067435231396,-0.02199114857512855,1756822737.428400
-2.0171494518,3.9888352742,9.7459664498,-0.14294246573833558,-0.8002334271328151,-0.10995574287564276,1756822737.436380
-1.4596217859999998,4.433900277799999,10.473384520199998,-0.3885102914939378,-1.1643091265521246,-0.20158552860534507,1756822737.444388
-0.6460621019999999,4.488935197599999,9.990034354999999,-0.6267477343911637,-1.6481144126582454,-0.11606439525762292,1756822737.452362
0.0334995164,4.0223347905999995,9.3990071728,-0.6524040918487729,-2.1392500641694494,-0.03420845333908886,1756822737.460393
1.1437692028,3.8476587407999996,9.463613383,-0.4899139210348083,-2.5912903578892736,0.023212879051524585,1756822737.468378
2.0434705004,3.4671999473999997,9.674181771799999,-0.36529741244241315,-3.078760695798242,0.04153883619746504,1756822737.476380
2.8283163131999998,3.2111679292,9.5377908836,-0.3152064454568834,-3.521027320239823,0.01710422666954443,1756822737.484378
3.7615171272,2.9934210726,9.513862657599999,-0.21991148575128552,-3.79591667742893,-0.09040805525330627,1756822737.492389
4.713860522,2.5339991334,9.6167540294,-0.04642575810304917,-3.8875464631586323,-0.2919935838586513,1756822737.500393
5.520241738199999,2.2205393728,9.7842516114,-0.08674286382411818,-3.8093555381363613,-0.5045746867515607,1756822737.508361
6.4630138426,1.7706887239999998,10.083354436399999,-0.08185594191853406,-3.655417620283509,-0.7403686337894095,1756822737.516392
7.719245707599999,0.8566304908,10.413563955199999,-0.15760323145508795,-3.435506029812468,-1.0005972950749342,1756822737.524418
8.7003029736,0.057427742399999995,10.6504533926,-0.20036379812894903,-3.1813861430819714,-1.1533136046244379,1756822737.532354
9.7818587888,-0.8039883936,10.5116696818,-0.23335052099164186,-2.959031091658139,-1.2803735567163326,1756822737.540394
10.506884036599999,-1.5146567058,9.923035322199999,-0.3237585587916556,-2.774549929348678,-1.3646729770409514,1756822737.548415
11.0644117024,-2.5076780847999998,9.068797653999999,-0.34330626386728463,-2.5912903578892736,-1.3671164379937433,1756822737.556434
11.361121704799999,-3.493520996,8.207381518,-0.3860668479944382,-2.4251349432862432,-1.3573425069161127,1756822737.564366
11.7679015468,-4.307080679999999,7.5182486092,-0.5045746867515607,-2.2430972244762826,-1.2693780173353533,1756822737.572365
12.3158579222,-5.2570312522,7.080362073399999,-0.6267477343911637,-2.1233676377894715,-1.185078597010735,1756822737.580384
12.495319617199998,-5.620740287399999,6.742974086799999,-1.0042624690508297,-2.0916025057768346,-1.05801857510567,1756822737.588359
12.9284205078,-5.907878999399999,5.953342628799999,-0.9602801544472802,-1.9254472308001442,-0.992045146833577,1756822737.596362
13.0600257508,-5.647061336,5.5345986738,-0.8368853937845735,-1.6896532139491254,-0.8234463410909246,1756822737.604397
13.0791683316,-5.6231331099999995,5.603990529199999,-0.6719517620178169,-1.4220943268848572,-0.6255260039147678,1756822737.612367
13.153345832199998,-4.9842494758,5.584847948399999,-0.4422664324553631,-1.0995574287564276,-0.4776966337241405,1756822737.620382
12.4235349392,-3.0173492986,4.905286329999999,-0.079412480965742,-0.5986479159807625,-0.2797762965479835,1756822737.628429
12.179467033999998,-3.1202406704,5.6255259326000004,0.1111774733520388,-0.29321529688175485,-0.09651670763528643,1756822737.636362
12.019147919799998,-1.4213366244,4.9483571368,-0.1282817000215832,-0.28955012290585924,-0.21991148575128552,1756822737.644389
10.9902342018,0.7417750059999999,4.4075792292,0.0,0.07208209810736581,-0.11362093430483085,1756822737.652392
10.4183496004,1.1868400096,4.7330031028,0.0916297857297023,0.48258353817643207,0.09896016858807849,1756822737.660359
9.846464998999998,1.6725829974,4.524827536599999,-0.15760323145508795,0.7684684521998107,0.047647488579445195,1756822737.668414
9.2506521716,2.0123638066,4.0606199522,-0.21991148575128552,1.0873401065391748,0.13683381335635544,1756822737.676421
8.717052731799999,2.6943182475999996,3.5198420446,-0.29688050576423547,1.3891074818491167,0.1356120828799594,1756822737.684358
8.1427753078,3.3044880105999996,3.1298119607999997,-0.3237585587916556,1.6786576745681463,0.14782938764391973,1756822737.692418
7.331608446399999,4.1730826144,2.8857440556,-0.18448130193580065,1.968207745114128,0.17715091907742445,1756822737.700416
6.5659052144,4.1324046302,3.3068808331999997,0.009773843811168246,2.238210320023991,0.10018189906447451,1756822737.708395
5.812166095399999,3.4480573666,3.9625142255999997,0.05619960191421741,2.4104742473826613,0.14905111812031574,1756822737.716356
4.905286329999999,3.4528430117999998,4.3238304382,0.0916297857297023,2.6047294629428,0.10873401239924674,1756822737.724372
4.2161534212,3.1537401868,5.0201418148,0.11362093430483085,2.8356364531684797,0.22602013813326566,1756822737.732372
3.6131621259999998,2.9407789753999998,5.776273756399999,0.03298672286269283,2.9895743535680395,0.33108894165003183,1756822737.740389
3.0771698636,3.0532416376,6.675975054,-0.1356120828799594,3.123964915411113,0.45814892864851153,1756822737.748402
2.5411776012000002,4.0199419679999995,7.542176835199999,-0.3127630019573839,3.254689919305856,0.5082398956340413,1756822737.756422
2.0602202586,5.7284173044,8.4753776492,-0.2565634000431664,3.2888984773646994,0.4935791299172889,1756822737.764367
1.411765334,6.8147587648,9.7794659662,-0.2700024352835228,3.3108895386733654,0.4276056667386107,1756822737.772419
0.8829515394,5.86241537,10.7677017,-0.36285396894291366,3.213151257641316,0.2712241657599188,1756822737.780366
0.44267218099999994,4.259224228,10.825129442399998,-0.6389650566084165,2.9736920668144013,0.14416419621473162,1756822737.788372
-0.047856451999999994,2.093719775,10.880164362199999,-0.8564330639536175,2.7537804763433607,-0.035430183815484885,1756822737.796385
-0.275174599,-0.49770710079999997,11.387442753399998,-0.9456193887305278,2.5460864000757906,-0.2431243648028101,1756822737.804426
-0.24167508259999998,-3.1202406704,11.9569345322,-0.9957103208094725,2.361604975966942,-0.3616322035599326,1756822737.812361
0.2608176634,-3.4959138186,11.84447187,-0.7024950239277177,2.096489549855466,-0.377514699753081,1756822737.820394
0.5958128274,-5.1541398804,12.756137280599999,-0.3494149162492648,1.7861698866778268,0.01832595714594046,1756822737.828386
-2.9623143788,-9.458827737799998,14.469398262199999,-0.061086523819801536,1.6493361431346414,-0.06719517620178168,1756822737.836366
-1.0480562988,-8.3007015994,13.244273091,0.3103195584578843,1.3243557840534197,-0.41905355340383854,1756822737.844395
-1.4859428345999999,-8.3844503904,13.39980656,0.6695083185183173,0.9395107712551326,-0.40317105721069013,1756822737.852409
-1.6223337227999999,-8.133204017399999,13.529018980399998,0.9321803534901714,0.49235736453430784,-0.31398473243377983,1756822737.860400
-1.8352949342,-7.3005017526,13.196416639,0.9101892398216279,0.006108652381980153,-0.20036379812894903,1756822737.868365
-1.5720844482,-6.357729648199999,12.849457361999999,0.8930849433389134,-0.4043927876870862,-0.1282817000215832,1756822737.876383
-1.2466605746,-5.4388857698,12.466605745999999,0.7476990515543709,-0.7831292179165632,-0.07452555906015787,1756822737.884392
-0.7345965381999999,-4.701896409,12.246466066799998,0.6096435077216193,-1.069014166846527,0.02076941809873252,1756822737.892385
-0.1220339526,-4.0462630166,11.988041225999998,0.4495968153137393,-1.2986995662221508,-0.07452555906015787,1756822737.900369
0.550349198,-3.3810583338,11.6458675942,0.2724458962363148,-1.4660765716752369,-0.11972958668681101,1756822737.908416
1.1222337993999998,-2.7924239741999997,11.1003040414,0.1392772743091475,-1.538158617422725,-0.2309070600388498,1756822737.916359
1.5840485612,-2.2540388892,10.4015998422,0.009773843811168246,-1.5186110170668512,-0.2541199390903744,1756822737.924383
1.8640088054,-1.5553346899999998,9.6813602396,-0.05009094953223726,-1.446528831693023,-0.26878070480712674,1756822737.932410
2.0123638066,-0.7489534737999999,9.1357966868,-0.059864793343405505,-1.3439035240356338,-0.34819320322616126,1756822737.940364
2.0099709839999997,0.1411765334,8.676374747599999,-0.059864793343405505,-1.189965484009734,-0.37995817815916555,1756822737.948402
2.0003996936,0.7465606511999999,8.2480595022,0.05253441048502932,-1.0519099401769825,-0.45814892864851153,1756822737.956706
1.9094724347999998,1.1270194446,7.697710304199999,0.16859880574265224,-0.9248500055383803,-0.6072000642221197,1756822737.964382
1.7395820301999998,1.5960126742,6.831508523,0.26022859147235455,-0.8319984195191118,-0.7073819283800092,1756822737.972385
1.519442351,2.2995025185999998,5.790630692,0.4251622232391112,-0.7538076864830584,-0.7721336959888764,1756822737.980402
1.3351950108,3.1489545415999998,4.9124647978,0.5241223918271897,-0.698829849951822,-0.8295549760196123,1756822737.988359
1.375872995,3.6586257554,4.402793584,0.5705481150236538,-0.7293731118617228,-0.8869763258635183,1756822737.996360
1.6103696097999998,4.168296969199999,4.6755753604,0.5155702784924174,-0.8466591852358643,-0.9456193887305278,1756822738.004395
2.0099709839999997,4.163511324,5.469992463599999,0.36529741244241315,-1.0042624690508297,-0.915076126820627,1756822738.012381
2.5411776012000002,4.0845481781999995,6.604190376,0.2907718533822553,-1.2034044668902126,-0.8735372731698694,1756822738.020362
3.1034909122000003,4.204189308199999,7.5828548194,0.13072516097437528,-1.4269812313371488,-0.7684684521998107,1756822738.028388
3.5270205123999996,4.4554356812,8.530412569,0.026878070480712675,-1.6774359615450425,-0.7024950239277177,1756822738.036368
3.6969109169999994,4.0534414843999995,9.4660062056,-0.29565879274113194,-1.8484782806003646,-0.775798869964772,1756822738.044353
5.1397829448,5.941378515799999,9.1357966868,-0.5119050696099369,-2.141693507668949,-0.8539896030008255,1756822738.052338
5.096712137999999,4.9028935074,9.7555377402,-0.659734439800564,-2.3970351248758424,-0.8943067436284794,1756822738.060414
6.7453669093999995,5.6853464976,9.3415794304,-0.7159340591680741,-2.4813345626537533,-0.4227187273797341,1756822738.068356
7.0660051377999995,5.2402814939999995,9.152546445,-0.8210028975914251,-2.4886649106055447,-0.30543261909900765,1756822738.076346
7.372286430599999,4.7593241513999995,8.626125472999998,-0.9321803534901714,-2.3994785858286343,-0.3420845333908886,1756822738.084390
7.7120672398,4.1946180178,7.829315547199999,-1.077566315087884,-2.214997423519174,-0.4129449010218584,1756822738.092347
8.082954742799998,3.5796626096,7.4177500599999995,-1.1496484306485424,-2.002416303172972,-0.5216788959678126,1756822738.100350
8.5232341012,3.0723842184,7.319644333399999,-1.2815952697394364,-1.7421876593407397,-0.7073819283800092,1756822738.108395
8.8869431364,2.3641087288,7.345965381999999,-1.2461651208305364,-1.4489722926458148,-0.8038986709218807,1756822738.116339
8.9060857172,1.6893327556,7.238288364999999,-1.2412782163782448,-1.1667525700516244,-1.0348057309607304,1756822738.124350
8.8271225714,0.7609175867999999,7.156932396599999,-1.189965484009734,-0.895528456651583,-1.077566315087884,1756822738.132332
8.7409809578,-0.28474588939999995,7.1952175581999995,-0.9786061115932205,-0.6279694648675597,-1.2119566674914477,1756822738.140398
8.8701933782,-1.7347963849999999,7.465606511999999,-0.8344419328317815,-0.4642575810304917,-1.3084733576734413,1756822738.148349
8.9443708788,-2.8618158295999994,7.731209820599999,-0.735481729337118,-0.3726277953007894,-1.4220943268848572,1756822738.156557
9.085547412199999,-3.6418759971999997,7.9417782094,-0.5900958375525753,-0.42394049276271517,-1.376890229445034,1756822738.164393
9.1788674936,-4.1539400336,8.169096356399999,-0.4642575810304917,-0.5131268000863328,-1.5467108354772523,1756822738.172348
9.5162554802,-4.3956151162,8.350950873999999,-0.36896258641830876,-0.659734439800564,-1.3390166195833422,1756822738.180354
9.6598248362,-4.527220359199999,8.4179499068,-0.33231070703301285,-0.8552113334772214,-1.407433491354935,1756822738.188365
9.839286531199999,-4.4458643908,8.154739420799999,-0.20525072003453315,-1.0348057309607304,-1.2144001284442394,1756822738.196345
10.061819032999999,-4.4386859229999995,7.8364940149999995,-0.14416419621473162,-1.2571606427582231,-1.210734954468344,1756822738.204344
10.198209921199998,-4.3046878574,7.508677318799999,-0.08918632477691024,-1.4208726138617538,-1.1533136046244379,1756822738.212343
10.377671616199999,-3.9984065645999993,7.006184572799999,-0.0158824961931484,-1.53204999994733,-0.9602801544472802,1756822738.220360
10.492527100999999,-3.5246276898,6.3457655352,0.013439035240356337,-1.5931365237671316,-0.860098237929513,1756822738.228349
10.4997055688,-2.9288148623999994,5.931807225399999,0.2345722514680379,-1.5454891050008563,-0.6841690842350697,1756822738.236393
10.569097424199999,-2.1750757434,5.620740287399999,0.339641054984804,-1.4306464053130443,-0.49968774739268407,1756822738.244363
10.6073825858,-1.1724830739999998,5.314458994599999,0.24434609527920614,-1.2889256176912274,-0.34452799434368064,1756822738.252410
10.660024683,0.0167497582,5.0703910894,0.17837264955382048,-1.0714576103460265,-0.29565879274113194,1756822738.260378
10.3657075032,1.4835500119999998,4.737788748,0.06597344572538566,-0.6621779007533561,-0.19914206765255302,1756822738.268386
10.1120683076,2.7086751832,4.4434715682,0.07208209810736581,-0.1710422666954443,-0.1466076571675237,1756822738.276374
9.439685157,3.5629128513999997,4.2113677759999995,0.12217304763960307,0.4092797270459628,-0.008552113334772215,1756822738.284371
8.702695796199999,3.9529429352,4.0055850324,0.3335324375094089,1.0629055493711317,0.13194689145077132,1756822738.292359
7.7407811109999995,4.0965122912,3.6681970458,0.3665191429188092,1.6126842637493455,0.33108894165003183,1756822738.300404
6.927221427,4.3956151162,3.5174492219999998,0.3274237676741362,2.030515981957033,0.38362336958835364,1756822738.308387
6.0155560164,4.4123648744,4.0821553556,0.3726277953007894,2.408030786429869,0.378736465136062,1756822738.316421
5.0823552024000005,4.199403663,5.0871408476,0.45814892864851153,2.759889233445096,0.5693263845472578,1756822738.324414
4.2903309218,4.8478585876,5.6973106106,0.31642817593327943,2.945592248404,0.5314527746855658,1756822738.332408
3.5772697869999996,5.0344987504,6.5874406178,0.17348572764823636,3.0653218525441037,0.519235452468313,1756822738.340376
3.0364918794,4.9363930238,7.5230342544,-0.013439035240356337,3.1777210912791234,0.5742133588127195,1756822738.348383
2.656033086,4.658825602199999,8.446663778,-0.2516764781375823,3.2559117719552995,0.5094616261104373,1756822738.356384
2.5292134882,4.433900277799999,9.4325066892,-0.4886921905584123,3.2155947011408155,0.6365215956556246,1756822738.364370
2.2540388892,4.3597227772,10.394421374399998,-0.8295549760196123,3.0763172522987428,0.5986479159807625,1756822738.372392
1.5242279962,4.2544385828,10.516455327000001,-1.0079276430267252,2.7623326769445953,0.6499606483492734,1756822738.380369
1.1030912186,3.7016965622,10.896914120399998,-1.3377949065602386,2.361604975966942,0.5302310093025848,1756822738.388364
0.8518448456,2.7349962317999994,11.815757998799999,-1.4416419272407313,2.0402899304879565,0.26878070480712674,1756822738.396402
0.5024927459999999,1.67497582,13.0552401056,-1.370781611969639,1.849699993623468,0.030543261909900768,1756822738.404371
0.3182454058,0.5407779076,13.375878334,-1.1960741189384216,1.7861698866778268,-0.1710422666954443,1756822738.412363
0.167497582,-0.6125625856,13.0241334118,-0.9199630312729187,1.602910315218422,-0.1747074581246324,1756822738.420407
0.1339980656,-1.5792629159999998,12.332607680399999,-0.7220426940967616,1.3206906100775242,-0.33231070703301285,1756822738.428357
0.09571290399999999,-2.1607188078,11.775080014599999,-0.3946189613292104,0.896750187127979,-0.27611108766550296,1756822738.436374
0.014356935599999999,-2.2683958248,11.535797754599999,-0.11850785621041497,0.4495968153137393,-0.29565879274113194,1756822738.444418
0.047856451999999994,-2.0769700168,11.3802642856,0.06230825429619756,0.039095375244672985,-0.26022859147235455,1756822738.452358
0.215354034,-1.6534404165999999,11.093125573599998,0.1356120828799594,-0.32864549815053223,-0.18203784098300857,1756822738.460398
0.45224347139999993,-1.1964112999999998,10.6815600864,0.04153883619746504,-0.5839871502640102,-0.14905111812031574,1756822738.468385
0.8207381518,-0.8350950873999999,10.3393864546,-0.08674286382411818,-0.71715578964447,0.05009094953223726,1756822738.476362
1.3495519463999999,-0.658026215,10.289137179999999,-0.21746802479849348,-0.7990117141097115,0.079412480965742,1756822738.484383
1.8065810629999999,-0.6675975054,10.504491213999998,-0.39828413530510604,-0.736703459813514,0.1759291886010284,1756822738.492387
2.0841484845999996,-0.9020941201999999,10.616953876199998,-0.5497787143782138,-0.6389650566084165,0.14416419621473162,1756822738.500923
2.2061824372,-1.1988041226,10.348957744999998,-0.6866125277345693,-0.45814892864851153,0.09285151620609834,1756822738.508379
2.1104695332,-1.6582260617999998,9.851250644199999,-0.757472930272124,-0.23335052099164186,-0.026878070480712675,1756822738.516360
1.9597217094000001,-2.2037896146,9.121439751199999,-0.8075638448977763,-0.026878070480712675,-0.20036379812894903,1756822738.524422
1.8065810629999999,-2.6751756667999995,8.056633694199999,-0.7782423134642716,0.1270599695451872,-0.2919935838586513,1756822738.532357
1.5984054967999999,-2.9216363946,6.664010941,-0.5106833391335408,0.23212879051524585,-0.4141666314982544,1756822738.540374
1.4404792051999997,-2.9096722816000002,5.3551369788,-0.26267205242514663,0.24923301718479024,-0.48136180770003606,1756822738.548412
1.3830514628,-2.727817764,4.893322217,0.04520402762665313,0.22602013813326566,-0.5827654197876142,1756822738.556361
1.6103696097999998,-2.4406790519999997,5.556134077199999,0.21013764194011728,0.1795943800302165,-0.5998696464571586,1756822738.564401
2.0099709839999997,-1.8616159827999998,7.1449682836,0.33597588100890846,0.11362093430483085,-0.6572909963010645,1756822738.572504
2.4741785684,-0.9834500885999999,9.128618219,0.43249260609748735,0.048869219055841226,-0.6695083185183173,1756822738.580362
2.8378876035999996,0.1268195978,11.00698396,0.43249260609748735,-0.03420845333908886,-0.6414085001079161,1756822738.588371
3.1202406704,1.2729816232,12.483355504199999,0.3494149162492648,-0.18081611050661253,-0.6707300315414209,1756822738.596414
3.3906296242,2.045863323,13.153345832199998,0.14782938764391973,-0.3457497073667842,-0.6805039102591741,1756822738.604392
3.7423745464,2.3353948576,12.8997066366,-0.15271630954950383,-0.5473352708787143,-0.6548475353482724,1756822738.612389
4.3357945512,2.3377876802,11.9617201774,-0.26633724385433466,-0.8063421318746727,-0.6023130899566581,1756822738.620401
4.814359071199999,2.0386848551999996,10.937592104599998,-0.3860668479944382,-1.0824532020868833,-0.38117990863556156,1756822738.628360
5.347958511,1.7515461431999997,10.301101292999999,-0.36285396894291366,-1.370781611969639,-0.2309070600388498,1756822738.636373
5.6542398037999995,1.4859428345999999,9.9086783866,-0.36041049053682905,-1.574810636434361,-0.047647488579445195,1756822738.644392
6.1304115012,1.4404792051999997,10.0115697584,-0.29688050576423547,-1.6322318641052196,0.11239920382843482,1756822738.652456
6.3960148098,1.7036896912,10.3274223416,-0.29688050576423547,-1.5845844453389444,0.20280725908174108,1756822738.660375
6.3601224707999995,1.9645073545999998,10.2245309698,-0.36529741244241315,-1.407433491354935,0.278554548618295,1756822738.668382
5.958128274,2.2540388892,9.0951187026,-0.4740314248416599,-1.2070697804924484,0.2577851305195625,1756822738.676368
5.4364929472,2.3832513096,7.561319415999999,-0.6059783337457239,-0.9847147290686157,0.21013764194011728,1756822738.684377
4.9722853628,2.3234307446,6.2668023894000005,-0.6462954045602076,-0.8148942103028599,0.17715091907742445,1756822738.692374
4.6995035864,2.1990039693999996,5.410171898599999,-0.5986479159807625,-0.6609561702769601,0.1270599695451872,1756822738.700404
4.4913280202,2.1870398563999998,5.1445685899999996,-0.5742133588127195,-0.5729916283363234,0.05009094953223726,1756822738.708361
4.4123648744,2.237289131,5.3551369788,-0.4715879638888678,-0.5815437067645106,0.007330382858376184,1756822738.716366
4.6085763276,2.0171494518,5.8839507734,-0.32986722862692824,-0.6316346388434554,-0.09407324668249435,1756822738.724390
4.7808595548,1.9597217094000001,6.400800454999999,-0.23701571242082994,-0.7098253718795088,-0.10384709049366261,1756822738.732357
4.989035121,1.7108681589999999,6.848258281199999,-0.08307767239493008,-0.8344419328317815,-0.17226399717184032,1756822738.740423
5.1732824611999995,1.040877831,6.987041992,0.0,-0.9773843811168246,-0.15393804002589986,1756822738.748365
5.3072805268,0.37328032559999996,6.759723845,0.21013764194011728,-1.1215486122381413,-0.16004669240788003,1756822738.756387
5.426921656799999,-0.2823530668,6.4295143262,0.3457497073667842,-1.276708382740437,-0.16493361431346412,1756822738.764371
5.6853464976,-1.0504491214,6.2189459374,0.4618141026244071,-1.3683381684701394,-0.1710422666954443,1756822738.772388
6.149554081999999,-1.7994025952000001,5.967699564399999,0.6291911778906633,-1.4110986653308304,-0.2528982086139784,1756822738.780347
6.7573310224,-2.6967110702,5.670989562,0.7452556080548712,-1.3219123405539202,-0.32864549815053223,1756822738.788386
7.647461029599999,-3.6514472876,5.6374900456,0.9138544137975234,-1.1374310386181197,-0.4422664324553631,1756822738.796399
9.1070828156,-4.5343988269999995,6.2644095667999995,1.0421360789125218,-0.9700540331650334,-0.43249260609748735,1756822738.804400
11.2390877522,-5.4293144793999994,7.6283184488,1.1765265185825475,-0.9700540331650334,-0.2834414705238791,1756822738.812400
13.5003051092,-6.2715880346,9.8368937086,1.2473868338536398,-1.115439924949576,-0.024434609527920613,1756822738.820369
14.71585899,-6.582654972599999,12.258430179799998,1.1789699620820473,-1.174082935456708,0.37629296927668493,1756822738.828387
14.507683423799998,-6.221338759999999,13.641481642599999,1.0922270808046364,-0.8759807341226615,0.577878532788615,1756822738.836375
13.4309132538,-5.26420972,13.7874438212,0.9529497366823189,-0.277332818141899,0.7525859560066623,1756822738.844368
11.947363241799998,-3.936193177,13.426127608599998,0.6719517620178169,0.4850270165825167,0.736703459813514,1756822738.852408
10.001998467999998,-2.3306092123999997,12.7130664738,0.339641054984804,1.2144001284442394,0.6426302305843121,1756822738.860375
8.324629825399999,-0.9834500885999999,11.9976125164,0.03665191429188092,1.8765779593844256,0.4508185457901353,1756822738.868364
6.994220459799999,0.0023928226,11.4185494472,-0.1624901533606721,2.3359486010560406,0.28710667940635975,1756822738.876411
5.5106704478,0.7728816997999999,10.935199282,-0.37018431689470477,2.6352727248527006,0.19058995431778078,1756822738.884362
4.0725840652,1.2849457362,10.2364950828,-0.47036625086576433,2.8087582430614266,-0.0317649923862968,1756822738.892386
2.6943182475999996,1.4811571894,8.894121604199999,-0.537561392160961,2.8393015049713277,-0.10995574287564276,1756822738.900400
1.4309079147999997,1.5792629159999998,6.8769721524,-0.6157521426503069,2.8735100630301713,-0.010995574287564275,1756822738.908392
0.6005984726,1.8352949342,5.2139604454,-0.4618141026244071,2.7989844341568433,-0.10629055144645466,1756822738.916393
-0.047856451999999994,2.4406790519999997,4.146761565799999,-0.3860668479944382,2.6572637861613666,-0.15027284859671178,1756822738.924387
-0.3900300838,3.1585258319999996,3.7399817237999997,-0.3530801076784529,2.4874433197554886,-0.09773843811168245,1756822738.932353
-0.6412764568,3.7806597079999995,3.7758740628,-0.33108894165003183,2.217440867018673,-0.1282817000215832,1756822738.940404
-0.9044869427999999,4.2448672923999995,4.1922251952,-0.4544837546726159,1.9327775787519355,-0.12583823906879116,1756822738.948403
-1.0695917021999999,4.3429730189999995,4.398007938799999,-0.3726277953007894,1.6016886021953187,-0.21135937241651329,1756822738.956400
-1.0983055734,4.338187373799999,4.433900277799999,-0.3005456797401311,1.274264921787645,-0.34086282036778504,1756822738.964375
-0.9332008139999999,4.0749768878,4.0534414843999995,-0.10140362954087054,0.9957103208094725,-0.42149701435663056,1756822738.972388
-0.8015955709999999,3.7782668854,3.3092736557999998,0.16126842288427606,0.757472930272124,-0.4447098934081552,1756822738.980385
-0.681954441,3.373879866,2.9503502658,0.36285396894291366,0.5607743061190706,-0.33231070703301285,1756822738.988415
-0.6843472636,3.1250263156,3.7280176108,0.6291911778906633,0.34086282036778504,-0.24556782575560218,1756822738.996359
-0.490528633,3.2805597846,5.967699564399999,0.8124507493500679,0.14294246573833558,-0.13805554383275148,1756822739.004424
-0.11485548479999999,3.5222348671999995,9.291330155799999,0.9834929985922196,-0.0439822971502571,-0.1270599695451872,1756822739.012361
0.2656033086,4.017549145399999,13.098310912399999,1.059240305582066,-0.23701571242082994,-0.2040289895581371,1756822739.020410
0.7633104094,4.3716868902,16.0845535172,1.05801857510567,-0.35674531656093345,-0.3237585587916556,1756822739.028333
1.1270194446,4.2209390664,17.807385789199998,0.9101892398216279,-0.44104470197896706,-0.44837510229063576,1756822739.036361
1.4620146085999999,3.1130622025999997,17.7978144988,0.8112290363269643,-0.6646214140660257,-0.6768386664701084,1756822739.044355
2.141576227,1.8951154991999999,17.10868159,0.7208209636203656,-1.056796844629274,-0.8784242474353311,1756822739.052345
2.739781877,0.993021379,16.0295185974,0.5668829410477582,-1.539380347899121,-0.8918632128625174,1756822739.060677
3.4169506728,0.13160524299999998,15.125031654599999,0.5143485131094364,-2.0451768174869556,-0.7965682531569196,1756822739.068352
4.5511485852,-0.7393821834,14.256437050799999,0.5143485131094364,-2.7073546484271414,-0.5534438883541094,1756822739.076384
5.9892349678,-1.256231865,13.940584467599999,0.4288273972150068,-3.42206718655833,-0.3274237676741362,1756822739.084357
7.3028945752,-1.9669001771999999,13.9477629354,0.2504547476611863,-4.114788157235369,-0.12339477811599911,1756822739.092349
8.6931245058,-2.7852455064,13.7515514822,0.10506882097005864,-4.63402387150307,0.059864793343405505,1756822739.100343
9.7603233854,-3.6825539814,13.2035951068,-0.13194689145077132,-4.959004090957951,0.21746802479849348,1756822739.108359
10.719845248,-3.864408499,12.203395259999999,-0.3750712562535814,-5.0249775192300445,0.31154127148098787,1756822739.116346
11.088339928399998,-3.4480573666,10.325029519,-0.5436700619962336,-4.730540561685063,0.41905355340383854,1756822739.124385
11.085947105799999,-2.931207685,8.0925260332,-0.7122688851921785,-4.141666367342421,0.5070181302510602,1756822739.132328
11.0979112188,-2.2564317118,5.460421173199999,-0.7867944617056288,-3.371976062493167,0.4960225734167885,1756822739.140376
10.5547404886,-2.1463618722,3.3308090592,-0.6194173864393725,-2.3017403047965845,0.39217546546983334,1756822739.148369
9.887142983199999,-1.6606188843999998,1.3375878333999998,-0.5229006264442086,-1.3683381684701394,0.47036625086576433,1756822739.156387
8.9324067658,-0.6987041992,0.28474588939999995,-0.4654793115068877,-0.5766568023122189,0.47647486834115943,1756822739.164415
7.9106715156,-0.6508477471999999,-0.29910282499999996,-0.36896258641830876,0.19181168479417682,0.5290092788261888,1756822739.172384
7.0683979604,-0.4211367776,-0.3756731482,-0.2431243648028101,0.7648032782239153,0.5937610115284709,1756822739.180384
6.520441585,-0.11246266220000001,-0.2536391956,-0.18081611050661253,1.2901473481676236,0.6108652381980153,1756822739.188368
5.850451257,-0.0382851616,0.2105683888,-0.04276056667386108,1.7544049117448226,0.6890559886873613,1756822739.196357
5.1517470578,0.05503491979999999,0.7824529901999999,0.026878070480712675,2.117258880687736,0.7257079378858273,1756822739.204381
4.5080777784,0.38045879339999994,1.4739787215999998,0.12217304763960307,2.427578386785743,0.6695083185183173,1756822739.212374
3.7447673689999994,0.44985064880000003,2.1056838879999997,0.29688050576423547,2.6401596293049923,0.5876523242399058,1756822739.220361
3.2494530907999994,0.45224347139999993,2.5148565526,0.4227187273797341,2.7696630248963863,0.4141666314982544,1756822739.228383
2.7134608283999997,0.5742774239999999,2.7230321187999995,0.735481729337118,2.7733280766992343,0.2516764781375823,1756822739.236413
2.6656043763999997,0.6771687958,2.9958138951999995,1.0054841995272257,2.645046533757284,0.0,1756822739.244389
3.0364918794,1.1988041226,4.0151563228,1.3255775145298156,2.2272146759232565,-0.14905111812031574,1756822739.252712
3.7040893847999996,2.1822542112,6.9559352982,1.5210544780196433,1.6224580552006362,-0.20769418098732523,1756822739.260519
4.682753828199999,3.984049629,12.299108163999998,1.5760323669107572,0.9456193887305278,-0.1795943800302165,1756822739.268351
5.7188460139999995,5.0177489922,17.1756806228,1.275486652264041,0.43004911023811027,-0.22357667718047364,1756822739.276377
7.4392854634,6.0107703712,19.070796121999997,0.9822712855691161,-0.009773843811168246,-0.14905111812031574,1756822739.284360
9.518648302799999,5.8145589179999995,18.556339262999998,0.6291911778906633,-0.5241223918271897,0.06597344572538566,1756822739.292344
10.502098391399999,4.7258246349999995,16.984254814799996,0.339641054984804,-0.895528456651583,0.2822197400474831,1756822739.300390
10.444670648999999,3.3451659948,15.306886172199999,0.14172073526193954,-0.9040805350797702,0.3665191429188092,1756822739.308362
10.731809361,2.1272192914,14.6225389086,-0.04276056667386108,-0.7428121471020792,0.359188760060433,1756822739.316359
11.231909284399999,0.8877371845999998,14.931213023999998,-0.30909779307490326,-0.5204571829447091,0.3494149162492648,1756822739.324425
11.545369045,-0.6245266986,15.407384721399998,-0.6059783337457239,-0.18203784098300857,0.30298917559950816,1756822739.332365
11.0715901702,-2.27318147,15.175280929199998,-0.8271115150668203,0.2748893571891069,0.28710667940635975,1756822739.340417
10.1742816952,-3.6753755135999997,14.2588298734,-1.0030407385744338,0.8539896030008255,0.19303341527057286,1756822739.348390
8.937192411,-4.754538506199999,12.7800655066,-1.1423179430704111,1.4318681357894405,0.22968532956245377,1756822739.356348
7.247859655399999,-4.9698925402,10.956734685399999,-1.2424999294013483,2.013411842553951,0.28710667940635975,1756822739.364374
5.4029934308,-4.8023949582,8.949156524,-0.9700540331650334,2.4703389010997268,0.28099800957108706,1756822739.372414
3.4648071248,-3.9026936606,6.8745793297999995,-0.813672479826464,2.775771520198734,0.040317105721069016,1756822739.380358
1.8281164663999998,-2.7014967154,5.084748025,-0.5803219762881145,3.034778590634203,0.014660765716752368,1756822739.388393
0.7106683122,-1.5026925928,3.7998022887999996,-0.32009338481576005,3.108082366858087,-0.22968532956245377,1756822739.396416
-0.16271193679999998,-0.6221338759999999,3.134597606,-0.15760323145508795,3.0726522004958947,-0.21135937241651329,1756822739.404393
-0.9260223461999999,0.0047856452,2.7349962317999994,-0.058643062867009474,2.9504791528562917,-0.37018431689470477,1756822739.412392
-1.4548361408000001,0.46899322959999995,2.1320049365999996,0.006108652381980153,2.75622391984286,-0.36529741244241315,1756822739.420403
-1.9669001771999999,0.7441678285999999,1.1988041226,0.040317105721069016,2.5106562337135983,-0.3420845333908886,1756822739.428360
-2.3473589705999998,1.088734283,0.1579262916,0.17226399717184032,2.2333232933986515,-0.3017674451231121,1756822739.436355
-2.6009981662,1.363908882,-0.5383850849999999,0.23823744289722598,1.947438414281858,-0.2919935838586513,1756822739.444449
-2.6033909887999998,1.8257236438,-0.8446663778,0.3103195584578843,1.626123229176532,-0.22113321622768156,1756822739.452381
-2.4191436485999995,2.0482561456,-0.1387837108,0.37995817815916555,1.2608258167341186,-0.21135937241651329,1756822739.460365
-1.9645073545999998,2.3617159061999997,1.2610175102,0.36896258641830876,0.8686503687175778,-0.06719517620178168,1756822739.468385
-1.4500504955999998,2.667997199,3.4360932535999997,0.5045746867515607,0.39706240482870997,-0.11239920382843482,1756822739.476378
-1.0671988796,3.242274623,5.9868421452,0.659734439800564,-0.06963863715457375,-0.05742133239061344,1756822739.484358
-0.8231309743999999,3.7830525305999996,8.781658942,0.7770205829878756,-0.43127084071450633,0.05742133239061344,1756822739.492367
-0.6723831506,4.527220359199999,11.760723079,0.9395107712551326,-0.7709118956993103,0.03665191429188092,1756822739.500409
-0.2895315346,5.1445685899999996,14.8785709268,0.9517280236592153,-1.0787880281109876,0.17837264955382048,1756822739.508389
0.5551348432,5.1182475414,17.2307155426,0.9162978572970231,-1.3048081836975458,0.15760323145508795,1756822739.516361
1.5218351735999998,4.3860438258,18.30509289,0.8246680715673207,-1.5357151739232255,0.10873401239924674,1756822739.524423
1.8759729183999998,2.8139593776,17.824135547399997,0.7782423134642716,-1.654223047586933,0.024434609527920613,1756822739.532345
2.8522445392,0.9403792818,17.0464682024,0.8576547769767211,-1.8374826190463376,-0.1881464933649887,1756822739.540401
4.2903309218,-0.5383850849999999,17.5178542546,0.7428121471020792,-2.141693507668949,-0.11728612573401895,1756822739.548361
5.2474599618,-1.3926227532,17.6135671586,0.6695083185183173,-2.4031438819775772,-0.11606439525762292,1756822739.556363
6.185446420999999,-2.1822542112,17.1015031222,0.6059783337457239,-2.6792548474700326,0.013439035240356337,1756822739.564381
6.7142602156,-2.5316063108,16.27119368,0.5338962181850654,-3.0335567379847594,0.18448130193580065,1756822739.572377
7.271787881399999,-2.9216363946,15.550954077399998,0.4251622232391112,-3.453832039318286,0.1759291886010284,1756822739.580359
7.7120672398,-3.5222348671999995,14.292329389799999,0.11239920382843482,-3.8191295913870396,0.2516764781375823,1756822739.588385
8.1667035338,-3.936193177,12.598210988999998,-0.13194689145077132,-3.9901716486429732,0.1795943800302165,1756822739.596375
8.408378616399999,-3.8309089825999996,10.229316614999998,-0.3262020546510327,-3.9022071765155073,0.14782938764391973,1756822739.604396
8.3748791,-3.2135607518,7.700103126799999,-0.43371431912059094,-3.6432003678794262,0.1637118838370681,1756822739.612382
8.338986761,-2.3760728418,5.5058848026,-0.4019493441875866,-3.257133362805355,0.1637118838370681,1756822739.620368
8.204988695399999,-1.495514125,3.6945180944,-0.42394049276271517,-2.7586673807956523,0.23212879051524585,1756822739.628447
8.051848049,-0.7274180704000001,2.3353948576,-0.3335324375094089,-2.2565360677304214,0.278554548618295,1756822739.636369
7.8388868376000005,-0.24885355039999998,1.4213366244,-0.24434609527920614,-1.77517436475014,0.31398473243377983,1756822739.644378
7.5684978838,0.0981057266,0.9499505721999999,-0.13194689145077132,-1.210734954468344,0.278554548618295,1756822739.652407
7.1330041706,0.4474578262,0.849452023,0.030543261909900768,-0.71715578964447,0.2748893571891069,1756822739.660361
6.573083682199999,0.9140582331999999,1.0695917021999999,0.05742133239061344,-0.2712241657599188,0.3176499413162605,1756822739.668433
6.0562340006,1.1772687192,1.2514462198,0.1747074581246324,0.21624629432209744,0.33108894165003183,1756822739.676413
5.5417771416,1.663011707,1.3734801724,0.11606439525762292,0.6621779007533561,0.5094616261104373,1756822739.684363
4.8526442327999995,2.2444675987999996,1.4333007374,0.08552113334772216,1.0409143484361256,0.537561392160961,1756822739.692388
4.2687955184,2.6584259086,1.3543375916,0.10262536001726658,1.409876952307727,0.575435071835823,1756822739.700367
3.6873396266,2.656033086,1.3375878333999998,0.07208209810736581,1.690874926972229,0.49235736453430784,1756822739.708391
3.1872397032,2.428714939,1.3375878333999998,0.19792033717615698,1.8350391580935457,0.28099800957108706,1756822739.716404
2.9934210726,1.9645073545999998,1.5290136414,0.4386012235728825,1.9315558482755395,0.08185594191853406,1756822739.724412
3.254238736,1.4931213023999999,2.6273192147999995,0.8478809855254303,1.8875736209384524,-0.0024434609527920616,1756822739.732368
4.2879380992,1.5912270289999997,5.8600225474,1.3084733576734413,1.5662584358331264,-0.07452555906015787,1756822739.740399
5.4987063348,3.1178478478,11.808579531,1.5137241126145595,1.116661655425972,-0.3347541505325124,1756822739.748405
6.673582231399999,5.1038906058,18.352949342,1.4233160573612533,0.9028588220566666,-0.3726277953007894,1756822739.756393
8.204988695399999,6.1543397272,20.1188524208,1.255938912281827,0.7745771394883759,-0.4789183642005365,1756822739.764405
10.2676017766,6.087340694399999,19.6642161268,0.992045146833577,0.37384952577718544,-0.2822197400474831,1756822739.772413
11.4879413026,5.060819798999999,17.9892403068,0.7464773210779748,-0.23335052099164186,-0.08063421144213803,1756822739.780371
12.162717275799999,3.3714870433999997,16.1802664212,0.5900958375525753,-0.8100073058505682,-0.01832595714594046,1756822739.788361
11.9952196938,3.0460631698,15.7615224662,0.4422664324553631,-0.7794640439406675,-0.035430183815484885,1756822739.796371
12.404392358399999,1.4691930763999999,15.3571354468,0.12583823906879116,-0.5009095127756651,-0.1954768762233649,1756822739.804417
12.906885104399999,-0.25124637299999997,15.5007048028,-0.2700024352835228,-0.09651670763528643,-0.007330382858376184,1756822739.812361
12.5766755856,-1.3710873497999998,15.079568025199999,-0.6890559886873613,0.3176499413162605,0.05009094953223726,1756822739.820387
11.5764757388,-2.5411776012000002,14.143974388599998,-0.8991936306274786,0.7464773210779748,0.2675589743307307,1756822739.828408
10.2843515348,-3.5892338999999995,12.722637764199998,-1.1875220405102345,1.126435516690433,0.2981022362406315,1756822739.836370
8.748159425599999,-4.2329031794,11.205588235799999,-1.3878857688260133,1.4428636577171272,0.4019493441875866,1756822739.844397
7.0636123152,-4.3740797127999995,9.607182738999999,-1.4660765716752369,1.7568484948706622,0.35430182070155636,1756822739.852354
5.388636495199999,-3.8739797894,8.035098290799999,-1.330464541155155,2.0561723568679344,0.3347541505325124,1756822739.860358
3.7040893847999996,-3.0843483314,6.4917277138,-1.2522737383059315,2.2699751902372403,0.2516764781375823,1756822739.868420
2.261217357,-2.0841484845999996,5.0584269764,-1.049466496677483,2.427578386785743,0.03665191429188092,1756822739.876387
1.0935199281999999,-1.1700902514,3.8668013215999997,-0.8662069252180783,2.4740042147019623,-0.10629055144645466,1756822739.884355
0.22731814699999997,-0.5192425042,2.7493531674,-0.755029399506162,2.478891119154254,-0.30298917559950816,1756822739.892450
-0.2919243572,-0.1722832272,1.8496518698,-0.5888741245294717,2.4104742473826613,-0.4642575810304917,1756822739.900381
-0.6628118601999999,-0.0693918554,1.040877831,-0.498466016916288,2.3164010007001665,-0.4422664324553631,1756822739.908375
-0.9954142015999999,0.19381863059999999,0.22013967919999997,-0.2724458962363148,2.1905627790846682,-0.5766568023122189,1756822739.916412
-1.2299108163999999,0.334995164,-0.23928226,-0.15393804002589986,2.0683897314450648,-0.3946189613292104,1756822739.924358
-0.9858429112,0.3613162126,-0.9738787981999999,-0.03298672286269283,1.8484782806003646,-0.40561451816348215,1756822739.932396
-1.2394821068,0.19860427579999998,-0.2225325018,0.55710909723659,1.717753014906234,-0.5302310093025848,1756822739.940368
-1.363908882,0.5335994398,0.167497582,0.6768386664701084,1.480737267578819,-0.32864549815053223,1756822739.948368
-1.2969098492,0.95712904,0.8685946038,1.0091493735031214,1.2278390938714259,-0.23335052099164186,1756822739.956406
-1.0528419439999999,1.7252250945999998,2.189432679,1.154535335100834,0.915076126820627,-0.29443706226473587,1756822739.964384
-0.7465606511999999,2.5866412305999997,4.1419759206,1.276708382740437,0.5998696464571586,-0.22357667718047364,1756822739.972387
-0.28474588939999995,3.5916267226,6.515655939799999,1.3475686980115293,0.26511551337793865,-0.3274237676741362,1756822739.980496
0.16271193679999998,4.6396830214,9.5377908836,1.2852604437153319,-0.06230825429619756,-0.24068090385001803,1756822739.988347
0.6628118601999999,5.730810127,13.4069850278,0.917519587773419,-0.378736465136062,-0.09040805525330627,1756822739.996407
1.2227323486,6.752545377199999,16.4458697298,0.36041049053682905,-0.5974262029576589,-0.0635299847725936,1756822740.004548
1.6893327556,6.8817577976,18.9224411208,-0.2504547476611863,-0.6768386664701084,-0.09896016858807849,1756822740.012385
1.8137595307999999,5.347958511,20.1738873406,-0.5656612105713621,-0.6389650566084165,-0.2345722514680379,1756822740.020394
2.0291135648,2.3736800192,19.369898947,-0.460592372148011,-0.5033529562751646,-0.38973202197033374,1756822740.028338
3.0077780082,-0.7537391189999999,18.884155959199997,-0.1710422666954443,-0.5167920089688135,-0.3995058483282095,1756822740.036353
3.5796626096,-2.763710103,18.2859503092,-0.003665191429188092,-0.7672467217234148,-0.32131511529215606,1756822740.044377
3.7519458367999996,-3.2590243811999997,16.6085816666,0.03298672286269283,-1.2266173808483223,-0.09773843811168245,1756822740.052346
3.8620156764,-3.6658042231999994,15.096317783399998,0.09896016858807849,-1.9584339362095446,0.17715091907742445,1756822740.060376
3.9816568063999997,-3.9744783385999995,14.105689227,0.06475171524898962,-2.668259447715394,0.378736465136062,1756822740.068360
4.2376888246,-3.9505501125999998,13.165309945199999,-0.08918632477691024,-3.2840115903657003,0.5290092788261888,1756822740.076348
4.4841495524,-3.5365918028,11.8301149344,-0.23212879051524585,-3.740938648911476,0.48258353817643207,1756822740.084413
4.869393991,-2.9599215562,10.2867443574,-0.4288273972150068,-3.996280405744709,0.4935791299172889,1756822740.092340
5.3671010917999995,-2.2755742926,8.458627890999999,-0.5070181302510602,-4.059810390517303,0.44104470197896706,1756822740.100348
5.74277424,-1.4500504955999998,6.5874406178,-0.5302310093025848,-3.9938369622452097,0.47647486834115943,1756822740.108384
6.077769404,-0.7944171031999999,4.8263231842,-0.47036625086576433,-3.754377771418295,0.5522221578777133,1756822740.116342
6.293123437999999,-0.2679961312,3.1226334929999995,-0.4092797270459628,-3.382971724047194,0.5302310093025848,1756822740.124353
6.453442552199999,0.045463629400000004,1.8616159827999998,-0.3127630019573839,-2.9297096998509744,0.5852088807404061,1756822740.132332
6.448656907,0.2919243572,0.8685946038,-0.1747074581246324,-2.409252377279925,0.5937610115284709,1756822740.140372
6.3505511804,0.47856452,0.2584248408,-0.11239920382843482,-1.8668041504798423,0.5876523242399058,1756822740.148412
6.147161259399999,0.6795616184,-0.10289137179999999,-0.048869219055841226,-1.3048081836975458,0.6621779007533561,1756822740.156359
5.711667546199999,1.0839486378,-0.1531406464,-0.012217304763960306,-0.6817256232822776,0.5827654197876142,1756822740.164590
5.2977092364,1.4021940436,0.1459621786,-0.18203784098300857,-0.11850785621041497,0.698829849951822,1756822740.172360
4.8047877808,1.4739787215999998,0.6125625856,-0.1392772743091475,0.48624874705891274,0.5913175680289714,1756822740.180395
4.3740797127999995,1.1916256548,1.112662509,-0.1881464933649887,0.9981537817622645,0.339641054984804,1756822740.188382
4.0941194686,0.6652046828,1.6773686425999998,0.012217304763960306,1.4013248738795399,0.18936822384138474,1756822740.196355
4.2017964856,0.05503491979999999,2.3138594541999997,0.3457497073667842,1.6310101336288234,-0.21380283336930536,1756822740.204397
4.9005006848,-0.31106693799999996,3.5174492219999998,0.8662069252180783,1.6872097529963335,-0.42394049276271517,1756822740.212346
6.419943035799999,-0.08135596839999999,6.8099731196,1.5430456615013568,1.4306464053130443,-0.6499606483492734,1756822740.220384
8.0327054682,1.31605243,12.327822035199999,2.025629094958034,1.0506882271538789,-0.757472930272124,1756822740.228378
9.229116768199999,3.6299118841999998,18.3361995838,2.042733373987456,0.7110471721690749,-0.7586946432952276,1756822740.236381
10.662417505599999,5.0464628634,19.7599290308,1.729970406936657,0.3494149162492648,-0.736703459813514,1756822740.244421
11.444870495799998,6.1519469046,18.3984129714,1.1117747509736804,-0.4251622232391112,-0.6218608299388722,1756822740.252350
13.069597041199998,6.508477472,17.0033973956,0.8515461595013258,-1.0299187566952688,-0.16982053621904827,1756822740.260365
12.765708570999998,5.0943193154,15.306886172199999,0.5143485131094364,-1.4001031434031437,-0.11239920382843482,1756822740.268364
12.6053894568,3.1369904286,14.261222695999999,0.1673770752662562,-1.3377949065602386,-0.0635299847725936,1756822740.276352
13.2394874458,0.9475577495999999,14.2109734214,-0.20036379812894903,-1.0787880281109876,0.11606439525762292,1756822740.284340
13.75872995,-1.2227323486,14.167902614599997,-0.5998696464571586,-0.7318165553612224,-0.07819075048934597,1756822740.292346
13.725230433599998,-2.9144579268,13.6079821262,-0.9089675093452318,-0.33597588100890846,0.14538592669112765,1756822740.300381
13.0025980084,-4.3932222936,12.528819133599999,-1.1020008722559271,0.10140362954087054,0.079412480965742,1756822740.308380
11.952148887,-5.266602542599999,11.085947105799999,-1.1777482316056511,0.5864305937635097,0.1747074581246324,1756822740.316386
10.3274223416,-5.3671010917999995,9.477970318599999,-1.219287032896531,1.05801857510567,0.22846359908605773,1756822740.324390
8.5758761984,-4.570291166,7.8747791766,-1.19118721448613,1.529606538994538,0.1673770752662562,1756822740.332369
6.848258281199999,-3.3236305913999997,6.3912291645999995,-1.1410962125940152,1.9669860146377318,0.14782938764391973,1756822740.340410
5.120640363999999,-1.8735800958,5.099104960599999,-1.0787880281109876,2.310292243598431,0.11728612573401895,1756822740.348370
3.7782668854,-0.5982056499999999,4.1156548719999995,-0.9627236154000721,2.5326472950222643,-0.12950343049797924,1756822740.356409
2.5627130046,0.6460621019999999,3.3212377687999997,-0.8906414998394138,2.681698290969532,-0.16615534478986016,1756822740.364424
1.5984054967999999,1.4668002538,2.6727828442,-0.8148942103028599,2.838079914121272,-0.2565634000431664,1756822740.372367
0.7393821834,1.9645073545999998,1.9980068709999999,-0.7110471721690749,2.96636171886261,-0.24923301718479024,1756822740.380392
0.040677984199999996,2.2325034857999997,1.2873385588,-0.6853907972581733,3.071430347846451,-0.19792033717615698,1756822740.388365
-0.5479563754,2.3186450994,0.6340979889999999,-0.6902777017104648,3.110525810357587,-0.15271630954950383,1756822740.396346
-1.1341979124,2.5866412305999997,0.0334995164,-0.7391469033130135,3.0408870859365504,-0.16126842288427606,1756822740.404390
-1.4189438017999998,2.6416761504,-0.4474578262,-0.7440338775784752,2.8906142198865457,-0.14538592669112765,1756822740.412379
-1.4763715441999998,2.4933211492,-0.669990328,-0.7122688851921785,2.6413812201550484,-0.17226399717184032,1756822740.420410
-1.43569356,2.0841484845999996,-0.3613162126,-0.6157521426503069,2.3811525763228163,-0.0879645943005142,1756822740.428361
-0.9379864591999999,1.6677973521999998,0.6915257314,-0.30421088862261164,2.075720079396856,-0.003665191429188092,1756822740.436370
-0.36849468039999994,1.7012968685999998,3.0747770409999995,0.11484266478122689,1.7446311028402393,0.01710422666954443,1756822740.444389
-0.1268195978,1.6151552550000001,6.1088760978,0.4508185457901353,1.4514158757716547,0.010995574287564275,1756822740.452366
-0.16271193679999998,2.6392833278,9.6263253198,0.8539896030008255,1.209513223991948,-0.040317105721069016,1756822740.460368
-0.059820565,3.4815568829999997,13.854442854,0.9456193887305278,1.1032226027323233,0.07696902001294993,1756822740.468476
0.0981057266,3.6275190615999997,17.1780734454,0.9651670588995717,1.132544134165828,0.0439822971502571,1756822740.476359
0.215354034,2.5268206656,18.7262296676,1.0421360789125218,1.210734954468344,0.05742133239061344,1756822740.484360
-0.23928226,0.5910271822,19.3052927368,1.1301006906663285,1.307251644650338,-0.05742133239061344,1756822740.492468
-1.232303639,-1.3351950108,19.9106768546,1.2351694592765095,1.1997392929143171,-0.3127630019573839,1756822740.500344
-2.0602202586,-2.1008982428,19.231115236199997,1.1777482316056511,0.8906414998394138,-0.48136180770003606,1756822740.508400
-1.6223337227999999,-2.7254249414,19.135402332199998,1.0421360789125218,0.3237585587916556,-0.44837510229063576,1756822740.516374
-0.9858429112,-3.4624143021999996,18.876977491399998,0.7709118956993103,-0.5229006264442086,-0.09285151620609834,1756822740.524404
-0.5144568589999999,-4.9842494758,18.3098785352,0.55710909723659,-1.5222761910427467,0.30421088862261164,1756822740.532343
-1.5936198516,-5.994020612999999,17.2618222364,0.30421088862261164,-2.5839600099374826,0.3885102914939378,1756822740.540360
0.3613162126,-5.460421173199999,15.519847383599998,-0.05009094953223726,-3.717725752406659,0.19058995431778078,1756822740.548368
1.7898313048,-5.0584269764,13.7036950302,-0.2907718533822553,-4.572937347683268,0.2272418686096617,1756822740.556374
3.2709884942,-4.2113677759999995,11.708080981799998,-0.4141666314982544,-5.209458943338892,0.29565879274113194,1756822740.564382
4.4482572134,-3.1417760737999996,9.676574594399998,-0.44104470197896706,-5.602855772765979,0.3885102914939378,1756822740.572370
5.3671010917999995,-2.0291135648,7.685746191199999,-0.3677408733952052,-5.814215424435172,0.4691444854827833,1756822740.580362
5.9605210966,-0.8877371845999998,5.74277424,-0.3274237676741362,-5.800776040128966,0.5302310093025848,1756822740.588398
6.515655939799999,0.1339980656,3.912264951,-0.28955012290585924,-5.613851434320006,0.555887366760194,1756822740.596389
7.0660051377999995,0.71784678,2.4981067944,-0.33231070703301285,-5.182580715778547,0.5021312257987686,1756822740.604397
7.3794648984,1.0217352502,1.3232308977999998,-0.37629296927668493,-4.515515858213022,0.5424483315198376,1756822740.612382
7.4871419154,1.1389835575999998,0.334995164,-0.35552358608453744,-3.786142624178251,0.5522221578777133,1756822740.620393
7.4608208668,1.0049854919999999,-0.5455635528,-0.37629296927668493,-2.945592248404,0.558330827712986,1756822740.628366
7.202396026,1.0743773474,-1.2059825903999999,-0.33231070703301285,-2.120924054663632,0.5485569839018177,1756822740.636357
6.6831535217999996,1.0959127508,-1.5960126742,-0.277332818141899,-1.2693780173353533,0.5717698280467574,1756822740.644419
6.051448355399999,1.2227323486,-1.6295121905999999,-0.2993239667170275,-0.48380525119953566,0.5766568023122189,1756822740.652368
5.4628139957999995,1.2275179938,-1.3112667848,-0.2272418686096617,0.24434609527920614,0.49235736453430784,1756822740.660387
4.8598227006,1.2346964615999998,-0.8231309743999999,-0.21135937241651329,0.9321803534901714,0.378736465136062,1756822740.668414
4.4554356812,1.0552347666,-0.1292124204,-0.1111774733520388,1.4257595008607529,0.13194689145077132,1756822740.676361
4.18743955,0.8015955709999999,0.5168496816,0.079412480965742,1.8032741831605412,-0.1392772743091475,1756822740.684372
4.2664026958,0.45942193919999996,1.3710873497999998,0.4019493441875866,2.0097466685780554,-0.43249260609748735,1756822740.692357
5.0464628634,0.346959277,2.7828526838000003,0.8808676909348307,1.9779816761917586,-0.6963864064523225,1756822740.700361
6.783652071,0.6508477471999999,6.3074803736,1.5027284510605328,1.749518007292531,-0.8271115150668203,1756822740.708390
8.1308111948,1.4883356571999997,12.488141149399999,1.9388861962273305,1.5100588164656163,-1.0054841995272257,1756822740.716387
9.5736832226,3.1896325257999996,19.4488620928,1.8949039688902434,1.407433491354935,-1.133765864642224,1756822740.724401
11.172088719399998,6.3984076324,19.9776758874,1.5161675735673517,1.070235897322923,-1.2644909907100141,1756822740.732366
10.8370935554,5.7044890784,18.951154992,1.0519099401769825,0.4508185457901353,-1.3158037056252325,1756822740.740368
12.483355504199999,6.568298037,15.361921092,0.7611381042480195,-0.2577851305195625,-0.5595525756426746,1756822740.748391
12.1651100984,4.974678185399999,14.608181972999999,0.38117990863556156,-0.6475171175833112,-0.3665191429188092,1756822740.756390
12.5814612308,3.0053851856,14.6057891504,0.08552113334772216,-0.7147123461449705,-0.318871654339364,1756822740.764368
13.4763768832,0.9451649269999999,14.9455699596,-0.28710667940635975,-0.5864305937635097,-0.26022859147235455,1756822740.772402
13.8975136608,-0.7441678285999999,15.0245331054,-0.5143485131094364,-0.3860668479944382,-0.21380283336930536,1756822740.780350
13.852050031400001,-2.27318147,14.742180038599999,-0.7342600163140145,-0.06719517620178168,-0.1392772743091475,1756822740.788412
12.9643128468,-3.4265219632,13.9716911614,-0.9321803534901714,0.32864549815053223,-0.1282817000215832,1756822740.796341
11.755937433799998,-4.2927237444,12.5814612308,-1.1105530204972844,0.7342600163140145,0.05619960191421741,1756822740.804359
10.0905329042,-4.4721854394,10.9663059758,-1.3023647401980463,1.1985175624379212,0.040317105721069016,1756822740.812363
8.3102728898,-4.1539400336,9.387043059799998,-1.2877039046681238,1.6407840647064542,0.06963863715457375,1756822740.820418
6.5395841658,-3.2255248647999997,7.7479595788,-1.3158037056252325,2.030515981957033,0.007330382858376184,1756822740.828359
4.6971107638,-1.9286150156,6.173482308,-1.189965484009734,2.328618253104249,-0.09773843811168245,1756822740.836373
3.1872397032,-0.5862415369999999,4.8047877808,-1.0995574287564276,2.5729643483834557,-0.20525072003453315,1756822740.844372
1.8927226766,0.3493520996,3.649054465,-0.9615018849236762,2.72323721443346,-0.33841932450840795,1756822740.852367
0.7728816997999999,0.9020941201999999,2.9168507493999996,-0.8405505677604691,2.8087582430614266,-0.41905355340383854,1756822740.860400
-0.08135596839999999,1.1030912186,2.3042881638,-0.7721336959888764,2.8967229769882814,-0.41661010990433894,1756822740.868420
-0.7824529901999999,1.1557333157999998,1.6127624323999998,-0.6499606483492734,2.9333749959999174,-0.46792275500638725,1756822740.876351
-1.2945170266000001,1.0767701699999999,0.8470592003999999,-0.5473352708787143,2.8906142198865457,-0.4654793115068877,1756822740.884361
-1.6534404165999999,1.0313065406,0.2225325018,-0.5009095127756651,2.7354544668375427,-0.4544837546726159,1756822740.892375
-1.8664016279999998,1.2586246876,-0.3038884702,-0.39584067435231396,2.511877824563654,-0.40317105721069013,1756822740.900395
-1.8041882403999998,1.3782658176,-0.550349198,-0.3335324375094089,2.222327771470965,-0.33841932450840795,1756822740.908362
-1.5385849318,1.5218351735999998,-0.4043870194,-0.22479840765686965,1.8008307222077493,-0.30543261909900765,1756822740.916367
-1.1940184774,1.6654045296,0.5647061336,-0.08674286382411818,1.3658947075173473,-0.23945917337362202,1756822740.924421
-0.6604190376,2.225325018,2.3976082452,0.09285151620609834,0.9517280236592153,-0.0439822971502571,1756822740.932363
-0.44267218099999994,2.51246373,5.312066172,0.318871654339364,0.4850270165825167,-0.06963863715457375,1756822740.940412
-0.22731814699999997,3.1920253484,8.5016986978,0.46792275500638725,0.2064724505109292,-0.014660765716752368,1756822740.948442
0.045463629400000004,3.8548372086,12.2488588894,0.653625822325169,0.07452555906015787,-0.06475171524898962,1756822740.956365
0.6125625856,4.3166519704,15.708880369,0.7745771394883759,0.023212879051524585,-0.04153883619746504,1756822740.964365
1.0983055734,4.4171505196,17.6039958682,0.7452556080548712,-0.0012217304763960308,0.047647488579445195,1756822740.972433
1.4021940436,3.3068808331999997,17.9198484514,0.6731734924942129,-0.05375614096142535,-0.04153883619746504,1756822740.980371
1.0791629926,1.1868400096,16.9459696532,0.6951646759759265,-0.14782938764391973,-0.14905111812031574,1756822740.988362
1.0552347666,-0.8781658942,16.0821606946,0.9187413007965226,-0.20769418098732523,-0.3274237676741362,1756822740.996373
1.8065810629999999,-2.5698914724,16.6037960214,1.011592817002621,-0.48380525119953566,-0.3909537524467298,1756822741.004353
2.333002035,-3.2446674455999998,18.269200551,0.8539896030008255,-0.7965682531569196,-0.3506366467256608,1756822741.012367
3.0029923629999997,-3.8596228537999995,19.0660104768,0.795346540133816,-1.2791518262399366,-0.18203784098300857,1756822741.020423
3.2590243811999997,-3.8213376921999997,18.2045943408,0.6768386664701084,-1.909564804420166,0.030543261909900768,1756822741.028363
3.6323047068,-3.7040893847999996,16.8765777978,0.47525315531805595,-2.6462681246073396,0.1282817000215832,1756822741.036348
4.0965122912,-3.5126635768,15.199209155199998,0.13316862192716733,-3.340211209733211,0.3103195584578843,1756822741.044344
4.7449672158,-3.1872397032,13.39980656,-0.22113321622768156,-3.8887680714619806,0.32131511529215606,1756822741.052403
5.388636495199999,-2.6632115537999996,11.2606231556,-0.4092797270459628,-4.244291552826763,0.36041049053682905,1756822741.060352
5.9007005316,-1.8616159827999998,9.085547412199999,-0.5412266010434417,-4.466646586797303,0.3885102914939378,1756822741.068400
6.3696937612,-1.1030912186,6.9176501366,-0.5632177496185702,-4.4104469674297935,0.48624874705891274,1756822741.076351
6.5563339240000005,-0.4474578262,4.9579284272,-0.5534438883541094,-4.186870325155905,0.5803219762881145,1756822741.084385
6.8099731196,0.040677984199999996,3.3523444625999996,-0.5302310093025848,-3.7873644768276953,0.659734439800564,1756822741.092348
6.9128644914,0.28474588939999995,2.1942183242,-0.39584067435231396,-3.275459372311173,0.6756169359937125,1756822741.100362
7.0013989275999995,0.2679961312,1.3902299305999999,-0.2834414705238791,-2.7403413712898343,0.6951646759759265,1756822741.108350
6.9056860235999995,0.28713871199999996,0.8590233133999999,-0.11239920382843482,-2.156354343198872,0.6438519436074157,1756822741.116346
6.6209401342,0.30149564759999997,0.4211367776,0.035430183815484885,-1.4990632770846373,0.6853907972581733,1756822741.124382
6.1806607758,0.5264209719999999,0.0334995164,0.08063421144213803,-0.8820894214112266,0.6853907972581733,1756822741.132346
5.5489556094,0.849452023,-0.1052841944,0.09040805525330627,-0.24068090385001803,0.6243042734383717,1756822741.140334
4.9842494758,1.2897313813999998,0.0334995164,0.04520402762665313,0.40561451816348215,0.6267477343911637,1756822741.148402
4.3118663252,1.5984054967999999,0.38524443859999996,0.03298672286269283,0.9749409376173249,0.538783157543942,1756822741.156409
3.6921252717999997,1.7922241274,0.7226324252,0.03665191429188092,1.429424692289941,0.37995817815916555,1756822741.164399
3.2231320422,1.5768700934,1.1102696864,0.21746802479849348,1.7739526342737442,0.16004669240788003,1756822741.172405
2.9455646206,1.1294122672,1.7060825137999998,0.5302310093025848,1.9547687622336491,-0.10384709049366261,1756822741.180387
3.397808092,0.6747759731999999,2.8331019584,0.8894197693630179,1.9120082479196656,-0.3995058483282095,1756822741.188392
4.4769710846,0.7800601676,5.3766723822,1.4220943268848572,1.6664404221640634,-0.5925392985053675,1756822741.196383
5.6901321428,1.7659030788,10.5619189564,1.8851301599856605,1.2986995662221508,-0.6805039102591741,1756822741.204395
6.7932233614,3.3068808331999997,16.551153924199998,1.87291278540853,0.915076126820627,-0.6633996137764597,1756822741.212382
7.996813129199999,5.1541398804,20.219350969999997,1.6212363247242403,0.5290092788261888,-0.6731734924942129,1756822741.220387
9.183653138799999,6.1519469046,19.5900386262,1.2400564859018488,0.05253441048502932,-0.4153883445213579,1756822741.228365
10.3704931484,5.6374900456,17.503497318999997,0.9468411192069238,-0.6047566207226203,-0.10995574287564276,1756822741.236358
11.712866626999999,4.1706897918,15.962519564599999,0.8112290363269643,-1.2986995662221508,0.03665191429188092,1756822741.244396
11.569297271,3.2111679292,15.522240206199998,0.4520402762665313,-1.557706357404939,0.28832839242946323,1756822741.252367
12.2536445346,1.8975083218,15.562918190399998,0.158824961931484,-1.4184290307359142,0.21258110289290932,1756822741.260390
13.4069850278,0.4881358104,15.823735853799999,-0.15393804002589986,-1.200961023390713,0.378736465136062,1756822741.268578
14.024333258599999,-1.0073783146,15.6873449656,-0.4422664324553631,-0.8625416814290127,0.4251622232391112,1756822741.276338
13.749158659599999,-2.6201407469999998,14.8283216522,-0.7611381042480195,-0.378736465136062,0.4386012235728825,1756822741.284347
12.5527473596,-4.007977855,13.237094623199999,-1.0079276430267252,0.21258110289290932,0.5253441048502933,1756822741.292393
11.00698396,-4.7353959254,11.5142623512,-1.197295831961525,0.8869763258635183,0.577878532788615,1756822741.300407
9.1788674936,-4.8789652814,9.6047899164,-1.2241739198955304,1.4477505621694187,0.575435071835823,1756822741.308355
7.2909304621999995,-4.3836510032,7.893921757399999,-1.1630873960757286,1.9767599457153626,0.5033529562751646,1756822741.316383
5.4293144793999994,-3.4265219632,6.262016744199999,-0.9883799728576813,2.430021847738535,0.5033529562751646,1756822741.324383
3.6753755135999997,-2.2995025185999998,4.7808595548,-0.8075638448977763,2.7684411722469426,0.34330626386728463,1756822741.332361
2.093719775,-1.1892328321999999,3.7088750299999997,-0.5265658353266892,2.982244005616248,0.16615534478986016,1756822741.340351
1.0145567824,-0.47138605219999996,2.9671000239999996,-0.3885102914939378,3.1410690722674874,0.22602013813326566,1756822741.348453
-0.0167497582,0.09092725880000001,2.3425733254,-0.15393804002589986,3.192381804635998,-0.05131268000863329,1756822741.356369
-0.8231309743999999,0.46899322959999995,1.7300107398,0.02076941809873252,3.123964915411113,-0.07086036763096977,1756822741.364358
-1.4739787215999998,1.0336993632,0.7944171031999999,0.10018189906447451,3.081204139297742,-0.019547687622336492,1756822741.372439
-1.9597217094000001,1.4739787215999998,0.045463629400000004,0.22602013813326566,2.919935890946391,-0.0317649923862968,1756822741.380361
-2.3042881638,1.5122638832,-0.6795616184,0.19792033717615698,2.7635542677946514,0.023212879051524585,1756822741.388377
-2.763710103,1.7635102561999998,-1.3710873497999998,0.2981022362406315,2.579073105485191,0.03665191429188092,1756822741.396401
-2.6057838114,2.1678972756,-1.2346964615999998,0.4495968153137393,2.100154723831362,0.10506882097005864,1756822741.404404
-2.1678972756,2.51246373,-0.5024927459999999,0.6072000642221197,1.6383406212069547,0.11850785621041497,1756822741.412359
-1.7970097725999998,3.0340990567999997,1.1868400096,0.7257079378858273,1.132544134165828,0.06597344572538566,1756822741.420366
-1.2227323486,3.9768711611999996,4.077369710399999,0.7464773210779748,0.659734439800564,0.13439035240356337,1756822741.428360
-0.8757730715999998,4.8526442327999995,7.659425142599999,0.7904596356815243,0.23823744289722598,0.09773843811168245,1756822741.436374
-0.8303094421999999,5.7643096434,11.138589203,0.6927211626632569,-0.19058995431778078,0.08185594191853406,1756822741.444446
-0.5048855686,6.400800454999999,14.4502556814,0.5827654197876142,-0.4874704600820162,0.003665191429188092,1756822741.452366
-0.1531406464,5.7499527077999995,17.024932799,0.5106833391335408,-0.6572909963010645,0.048869219055841226,1756822741.460398
0.7034898444,4.5655055208,18.2644149058,0.28099800957108706,-0.9187413007965226,0.07452555906015787,1756822741.468566
1.016949605,2.3976082452,18.2548436154,0.34330626386728463,-1.1582005090767296,0.1075122819228507,1756822741.476398
1.5385849318,0.4211367776,17.814564257,0.48136180770003606,-1.3475686980115293,0.007330382858376184,1756822741.484362
3.2015966387999995,-1.4931213023999999,17.6542451428,0.5742133588127195,-1.6151277072488452,0.024434609527920613,1756822741.492368
4.3094735025999995,-3.0029923629999997,18.0610249848,0.613308681697515,-2.014633555577055,0.059864793343405505,1756822741.500449
5.2426743166,-3.9194434188000002,17.2929289302,0.537561392160961,-2.504547476611863,0.21624629432209744,1756822741.508987
5.9748780322,-4.2999022122,16.213765937599998,0.49480084294039245,-2.9810224147661923,0.2993239667170275,1756822741.516355
6.862615216799999,-4.658825602199999,15.6107746424,0.417831840380735,-3.51736202409088,0.33719761148530447,1756822741.524403
7.6881390138,-4.8670011684,14.864213991199998,0.3335324375094089,-3.9498545952817823,0.4153883445213579,1756822741.532373
8.274380550799998,-4.701896409,13.6558385782,0.14172073526193954,-4.240626501023915,0.4276056667386107,1756822741.540399
8.5495551498,-3.9768711611999996,11.753544611199999,-0.035430183815484885,-4.335921338556465,0.43371431912059094,1756822741.548394
8.542376681999999,-2.8187450228,9.4660062056,-0.1356120828799594,-4.244291552826763,0.4691444854827833,1756822741.556369
8.5016986978,-1.8951154991999999,7.0348984439999995,-0.1514945790731078,-3.9303069774726156,0.4801400772236401,1756822741.564411
8.279166196,-0.8542376682,4.8430729424,-0.20158552860534507,-3.4403929342647595,0.5351179486614615,1756822741.572455
8.0542408716,-0.1746760498,3.1657042998,-0.048869219055841226,-2.9126055429946,0.48258353817643207,1756822741.580364
7.8819576444,0.30149564759999997,1.627119368,-0.059864793343405505,-2.364048419466442,0.5326744877086693,1756822741.588365
7.4751778024,0.8949156524,0.46899322959999995,0.03298672286269283,-1.8374826190463376,0.45692719817211547,1756822741.596422
7.0013989275999995,1.2801600909999997,-0.20578274359999998,0.13072516097437528,-1.312138531649337,0.4141666314982544,1756822741.604368
6.664010941,1.5026925928,-0.45463629399999994,0.1624901533606721,-0.7098253718795088,0.4899139210348083,1756822741.612363
6.1926248888,1.8041882403999998,-0.28474588939999995,0.22479840765686965,-0.1514945790731078,0.41905355340383854,1756822741.620360
5.759523998200001,2.1822542112,0.1483550012,0.16126842288427606,0.44348816293175913,0.43371431912059094,1756822741.628386
5.1661039934,2.5890340532000002,0.6197410534,0.1282817000215832,1.0140362605021205,0.4508185457901353,1756822741.636380
4.5176490688,2.8546373618,0.9738787981999999,0.07330382858376185,1.51128052948872,0.33719761148530447,1756822741.644403
3.9649070481999997,2.7565316352,1.1748758966,0.059864793343405505,1.8680258809562384,0.10140362954087054,1756822741.652381
3.6275190615999997,2.4502503424,1.2658031554,0.16126842288427606,2.1282545247884705,-0.14905111812031574,1756822741.660387
3.601198013,2.1056838879999997,1.6127624323999998,0.49113563405791183,2.1881193355851685,-0.45937065912490754,1756822741.668367
4.2544385828,2.0745771942,2.8259234905999997,0.9896017033340774,2.0097466685780554,-0.8161159233259635,1756822741.676396
5.5345986738,3.1920253484,5.730810127,1.602910315218422,1.616349437725241,-0.8723155601467658,1756822741.684365
6.9367927173999995,4.1802610821999995,12.0215407424,1.85214345457626,1.209513223991948,-0.8894197693630179,1756822741.692387
8.020741355199998,5.9007005316,18.2045943408,1.539380347899121,0.8759807341226615,-0.7782423134642716,1756822741.700405
9.3056870914,7.101897476799999,20.3772772616,0.972497476664533,0.6072000642221197,-0.5632177496185702,1756822741.708370
10.698309844599999,6.532405698,19.0564391864,0.5033529562751646,0.1514945790731078,-0.37629296927668493,1756822741.716403
12.1340034046,4.8119662486,16.476976423599996,0.3225368457685521,-0.4740314248416599,-0.0158824961931484,1756822741.724413
12.1603244532,2.6703900216,14.847464232999998,0.2345722514680379,-0.917519587773419,0.16982053621904827,1756822741.732362
11.944970419199999,0.5455635528,13.5625184968,0.3005456797401311,-0.8918632128625174,0.10506882097005864,1756822741.740371
12.3565359064,-1.0863414604,13.191630993799999,0.2797762965479835,-0.6291911778906633,0.13194689145077132,1756822741.748421
12.978669782399999,-2.4311077616,13.220344865,0.22357667718047364,-0.3225368457685521,0.16126842288427606,1756822741.756369
12.861421475,-3.9696926934,13.459627124999999,0.007330382858376184,0.008552113334772215,0.22602013813326566,1756822741.764381
12.102896710799998,-5.3336015754,13.284951075199999,-0.3530801076784529,0.44348816293175913,0.2736676267127109,1756822741.772374
10.8107725068,-6.3003019058,12.3493574386,-0.6585127267774605,1.0067059125503293,0.21258110289290932,1756822741.780372
9.219545477799999,-6.4295143262,10.884950007399999,-0.8723155601467658,1.5503760094531478,0.2431243648028101,1756822741.788363
7.5804619967999995,-5.5130632704,9.3009014462,-0.9602801544472802,2.051285452415643,0.18081611050661253,1756822741.796373
5.876772305599999,-4.127618985,7.9417782094,-0.9602801544472802,2.4740042147019623,0.1673770752662562,1756822741.804422
4.2113677759999995,-2.5531417142,6.448656907,-0.972497476664533,2.781880277300469,0.040317105721069016,1756822741.812369
2.739781877,-1.2610175102,5.0560341538,-0.8271115150668203,2.923600942749239,-0.010995574287564275,1756822741.820371
1.6055839646,-0.023928225999999997,3.7734812401999998,-0.698829849951822,2.9064967858928648,-0.20769418098732523,1756822741.828417
0.6508477471999999,0.7872386353999999,2.5411776012000002,-0.5021312257987686,2.8576275144771457,-0.3347541505325124,1756822741.836346
-0.035892338999999995,1.5768700934,1.0336993632,-0.2309070600388498,2.7110199620293773,-0.4520402762665313,1756822741.844434
-0.5742774239999999,2.1056838879999997,-0.1004985492,0.01710422666954443,2.552194895378138,-0.5009095127756651,1756822741.852392
-0.9595218625999999,2.5004996169999996,-0.7968099258,0.277332818141899,2.4068089337804253,-0.4153883445213579,1756822741.860364
-1.2370892842,2.8426732488,-1.0049854919999999,0.4129449010218584,2.2638666949348925,-0.43249260609748735,1756822741.868376
-1.4979069475999998,3.2470602682,-0.8087740388,0.5913175680289714,2.0720549054209605,-0.3848450826114571,1756822741.876407
-1.3686945272,3.8955151927999996,-0.1004985492,0.7855726614160627,1.9107865174432694,-0.2993239667170275,1756822741.884378
-1.1461620253999998,4.6133619728,1.2155538808,0.877202447145765,1.696983684073964,-0.30909779307490326,1756822741.892380
-0.7010970218,5.412564721199999,2.7469603448,0.9040805350797702,1.435533309765336,-0.18936822384138474,1756822741.900407
-0.4881358104,6.305087550999999,4.2089749534,0.6963864064523225,1.1105530204972844,-0.14172073526193954,1756822741.908359
-0.35892339,7.508677318799999,5.8815579507999995,0.44104470197896706,0.7977899836333155,-0.0439822971502571,1756822741.916369
-0.2464607278,8.2648092604,7.9345997416,0.13316862192716733,0.4728096943652639,-0.023212879051524585,1756822741.924395
