acc_x,acc_y,acc_z,gyro_x,gyro_y,gyro_z,timestamp
-3.26492496,1.38352392,9.809136720000001,-6.23,-12.11,-27.51,1770467752.064076
-3.0303482400000004,1.2614482800000002,10.0173834,-3.43,-15.26,-29.540001,1770467752.072189
-2.6569404000000003,1.11782988,10.16339544,-3.01,-16.24,-33.459999,1770467752.080172
-2.30507532,1.0795316400000001,10.20648096,1.12,-17.5,-32.41,1770467752.08813
-1.96996572,1.0555952400000002,10.22323644,0.98,-17.15,-34.16,1770467752.096145
-1.7090589600000001,0.9263386800000001,10.23759828,1.4,-15.05,-29.75,1770467752.10415
-1.5319296,0.73245384,10.13467176,1.96,-11.48,-32.619999,1770467752.112151
-1.38113028,0.6558573600000001,10.086798960000001,2.8,-10.5,-29.610001,1770467752.120177
-1.27102284,0.59362272,10.0652562,0.56,-7.7,-26.110001,1770467752.128319
-1.21836276,0.48351528,10.0891926,1.47,-4.69,-26.25,1770467752.13618
-1.2063945600000001,0.42606792,10.132278120000002,0.63,-0.98,-19.32,1770467752.144143
-1.3907048400000002,0.6031972800000001,9.95993604,1.54,3.43,-21.209999,1770467752.152144
-1.35958752,0.36383328000000004,9.99105336,3.57,7.42,-13.65,1770467752.160167
-1.63485612,0.54574992,9.694242000000001,1.68,9.1,-17.709999,1770467752.168162
-1.9532102400000002,0.54335628,9.69663564,2.03,5.95,-8.4,1770467752.176233
-2.03220036,0.6438891600000001,9.67988016,6.65,7.98,-4.62,1770467752.184148
-2.29310712,0.74920932,9.55541088,8.26,7.63,-4.83,1770467752.192145
-2.45587464,1.32607656,9.54344268,8.54,4.55,-6.37,1770467752.200145
-2.41997004,1.5415041600000001,9.44530344,7.42,5.88,-1.75,1770467752.208143
-2.49896016,1.82156004,9.337589640000001,7.98,3.5,-3.85,1770467752.21614
-2.4630555600000004,2.1662442,9.189183960000001,5.46,4.06,1.61,1770467752.224132
-2.50374744,2.1925742400000003,9.083863800000001,5.67,4.97,-1.26,1770467752.232145
-2.5157156400000003,2.04895584,9.12694932,1.96,5.67,-0.98,1770467752.240153
-2.59470576,1.6755480000000003,9.2274822,1.19,7.42,3.15,1770467752.248188
-2.68327044,1.40506668,9.268174080000001,3.08,8.05,1.26,1770467752.256165
-2.83406976,1.0891062,9.36391968,5.67,8.26,0.56,1770467752.264272
-3.0973701600000005,0.6462827999999999,9.51950628,11.9,5.32,1.12,1770467752.272153
-3.5066826,0.24893856,9.651156480000001,20.860001,4.55,2.17,1770467752.280138
-3.35588328,0.52420716,9.84504132,27.790001,-3.36,-5.53,1770467752.288121
-3.2792868000000004,1.0292652,10.0293516,27.23,-10.22,-15.96,1770467752.296151
-3.10933836,1.4337903600000002,10.12988448,24.780001,-13.72,-12.6,1770467752.304169
-3.02316732,1.73778264,10.1490336,21.0,-14.7,-19.950001,1770467752.312187
-2.81492064,2.18299968,10.096373520000002,18.76,-14.28,-17.01,1770467752.320158
-2.6258230800000004,2.5109283600000003,10.03892616,16.870001,-13.23,-21.209999,1770467752.328148
-2.42715096,2.7407178,10.031745240000001,15.33,-16.030001,-21.209999,1770467752.336151
-2.31464988,2.6449722,10.1011608,14.56,-11.62,-19.6,1770467752.344154
-2.2955007600000004,2.66412132,10.117916280000001,18.129999,-8.68,-20.440001,1770467752.352151
-2.2619898000000003,2.74311144,10.16818272,17.57,-8.47,-21.209999,1770467752.360148
-2.24284068,2.75029236,10.271109240000001,15.89,-8.26,-22.469999,1770467752.36819
-2.23565976,2.64975948,10.17536364,14.0,-9.45,-20.16,1770467752.376162
-2.26917072,2.5611948,9.98865972,10.01,-8.68,-16.73,1770467752.384168
-2.24284068,2.40800184,9.792381240000001,6.23,-7.35,-19.809999,1770467752.392152
-2.1925742400000003,2.25720252,9.545836320000001,1.96,-10.15,-17.709999,1770467752.400148
-2.17581876,2.1111904800000003,9.48599532,-1.82,-11.48,-19.809999,1770467752.408151
-2.1064032,2.0130512400000002,9.5625918,-2.24,-15.33,-19.6,1770467752.416151
-2.02501944,1.88858196,9.67988016,-4.13,-15.68,-15.89,1770467752.424266
-1.9986894000000002,1.7593254,9.61525188,-4.9,-16.66,-20.65,1770467752.432185
-2.06331768,1.5438978,9.478814400000001,-7.77,-16.450001,-15.26,1770467752.440163
-2.1183714,1.27820376,9.27296136,-10.08,-15.4,-11.9,1770467752.448152
-2.16863784,1.04841432,9.19875852,-8.89,-14.91,-11.06,1770467752.456181
-2.25959616,0.8856468000000001,9.22269492,-10.85,-14.35,-5.25,1770467752.464157
-2.35294812,0.7851139200000001,9.25859952,-9.59,-16.73,-7.98,1770467752.47226
-2.4343318800000002,0.7276665600000001,9.490782600000001,-8.89,-21.49,-4.83,1770467752.48015
-2.30268168,0.61516548,9.785200320000001,-7.7,-27.440001,-5.6,1770467752.488191
-2.22129792,0.7539966,9.8977014,-5.88,-29.68,-1.68,1770467752.496347
-2.09922228,0.7731457199999999,9.73972116,-2.87,-35.139999,-0.56,1770467752.504157
-1.9173056400000001,0.69894288,9.294504120000001,-4.34,-37.869999,-3.5,1770467752.512151
-1.7473572000000002,0.55771812,8.82535068,-1.12,-42.560001,-1.89,1770467752.520209
-1.46251404,0.47633436000000007,8.62189128,2.24,-47.18,-0.28,1770467752.528248
-1.14655356,0.49308984000000006,8.770296960000001,4.13,-49.98,1.12,1770467752.53614
-0.90479592,0.6127718400000001,9.23226948,5.53,-46.759998,1.33,1770467752.544153
-0.6223464,0.70851744,9.68466744,5.95,-42.91,-1.47,1770467752.552155
-0.12686292000000002,0.56968632,10.23759828,6.3,-35.700001,1.26,1770467752.560237
0.18909756000000003,0.88085952,10.43866404,1.68,-30.1,1.26,1770467752.568177
0.30399228000000006,0.9574560000000001,10.46978136,-0.56,-27.51,5.53,1770467752.576163
0.43085520000000005,1.0101160800000002,10.46499408,-5.53,-23.030001,10.15,1770467752.584157
0.5026644,0.9598496400000001,10.58228244,-5.11,-19.809999,8.96,1770467752.592236
0.4906962,0.98378604,10.66605984,-5.81,-15.05,15.96,1770467752.600155
0.45718524,1.05080796,10.699570800000002,-2.73,-10.15,13.37,1770467752.608153
0.35186508,1.29974652,10.64930436,-1.89,-7.77,16.940001,1770467752.616156
0.18670392000000002,1.6492179599999999,10.639729800000001,-0.14,-4.9,21.91,1770467752.62425
0.02154276,2.03220036,10.543984200000002,1.33,-2.24,19.459999,1770467752.632153
-0.17473572,2.3170435200000004,10.316588399999999,1.33,-2.59,21.559999,1770467752.640164
-0.3710142,2.5611948,9.878552280000001,1.54,-3.71,20.440001,1770467752.648157
-0.5266008,2.70002592,9.490782600000001,3.15,-5.32,23.379999,1770467752.656223
-0.5146326,2.70241956,9.294504120000001,4.41,-6.37,24.709999,1770467752.664159
-0.4547916,2.7048132000000003,9.215514,6.51,-10.15,24.01,1770467752.672172
-0.28005588000000003,2.67608952,9.193971240000002,7.56,-15.05,22.33,1770467752.680148
0.03111732,2.67608952,9.2394504,10.78,-19.809999,21.209999,1770467752.688141
0.42128064000000004,2.7167814000000003,9.557804520000001,11.97,-23.66,24.5,1770467752.696319
0.8090503200000001,2.87715528,9.809136720000001,12.67,-23.66,27.299999,1770467752.704193
1.24708644,3.0135927600000003,10.084405320000002,11.55,-21.98,25.41,1770467752.712163
1.63485612,3.0830083200000002,10.2088746,11.76,-17.360001,30.309999,1770467752.720174
1.9986894000000002,3.1931157600000004,10.1370654,9.87,-14.49,30.73,1770467752.728155
2.29071348,3.4229052,10.062862560000001,3.78,-11.69,34.580002,1770467752.736137
2.53965204,3.7915257600000003,10.144246320000002,0.14,-7.49,36.400002,1770467752.744134
2.69763228,3.9734424,10.34531208,-7.56,-1.61,36.400002,1770467752.752172
2.89391076,4.1649336,10.79292276,-16.59,5.6,37.380001,1770467752.760157
3.0638592,4.25828556,11.262076200000001,-24.08,17.5,38.639999,1770467752.768154
3.0830083200000002,4.2319555200000005,11.20941612,-28.77,28.49,34.02,1770467752.776163
2.9346026400000005,4.09791168,10.76419908,-29.959999,38.290001,30.450001,1770467752.784142
2.70960048,4.00695336,10.26632196,-28.0,48.299999,21.559999,1770467752.792157
2.4415128,4.01174064,10.007808840000001,-25.549999,54.599998,7.28,1770467752.800294
2.2021488000000002,3.9925915200000004,10.1490336,-26.18,61.110001,-6.44,1770467752.808179
1.61091972,3.7053547200000003,10.527228720000002,-24.360001,73.779999,-3.78,1770467752.816148
0.86889132,3.6862056,10.76419908,-22.889999,91.769997,6.02,1770467752.824149
0.08856468,3.7580147999999998,10.88388108,-23.1,101.57,10.01,1770467752.832153
-0.53138808,3.86094132,10.867125600000001,-23.309999,101.779999,15.19,1770467752.840154
-1.10825532,3.769983,10.74983724,-26.459999,98.279999,12.6,1770467752.848183
-1.6228879200000002,3.6383328,10.474568640000001,-26.809999,90.230003,15.47,1770467752.856221
-2.07289224,3.3822133200000004,10.110735360000001,-24.639999,87.150002,15.19,1770467752.864153
-2.513322,3.0782210400000003,9.78759396,-24.290001,84.629997,20.860001,1770467752.872185
-3.08061468,2.8795489200000004,9.50993172,-24.360001,84.839996,28.280001,1770467752.880201
-3.6407264400000003,2.6736958800000004,9.24184404,-29.190001,84.839996,29.75,1770467752.888148
-4.06679436,2.16863784,8.9402454,-28.98,85.190002,43.889999,1770467752.896157
-4.75616268,1.71384624,8.51417748,-28.0,86.309998,44.380001,1770467752.904253
-5.27558256,1.6731543600000003,8.2819944,-19.67,83.019997,44.939999,1770467752.912143
-5.82611976,1.6181006400000002,8.3059308,-17.219999,75.809998,49.419998,1770467752.920148
-6.26176224,1.60852608,8.33226084,-20.299999,61.669998,50.259998,1770467752.928158
-6.73330932,1.23033096,8.562050280000001,-28.07,45.709999,56.700001,1770467752.936152
-6.85059768,0.5744736,8.89715988,-35.77,36.82,58.939999,1770467752.944161
-7.4920932,-1.33325748,9.316046880000002,-40.669998,33.810001,50.330002,1770467752.952186
-6.92480052,-1.24948008,8.880404400000002,-40.669998,22.82,36.82,1770467752.960177
-6.71176656,-1.2255436800000001,8.80141428,-38.849998,13.79,34.93,1770467752.96815
-6.30963504,-0.95506236,8.97136272,-36.330002,0.21,25.690001,1770467752.976456
-5.866811640000001,-0.6127718400000001,9.21072672,-31.99,-10.36,29.190001,1770467752.984504
-5.433562800000001,-0.16755480000000003,9.31844052,-27.23,-20.02,24.290001,1770467752.992173
-5.0529740400000005,0.05744736,9.287323200000001,-22.540001,-26.879999,19.110001,1770467753.000198
-4.66281072,-0.0023936400000000003,9.1796094,-18.200001,-28.209999,26.530001,1770467753.008167
-4.38993576,-0.2273958,9.00487368,-13.93,-26.040001,31.780001,1770467753.016265
-4.1338162800000005,-0.34468416,8.99051184,-7.7,-21.0,37.799999,1770467753.024149
-4.028496120000001,-0.34707780000000005,9.03120372,-4.97,-18.129999,37.59,1770467753.032129
-3.97583604,-0.17952300000000002,9.0000864,-1.33,-16.1,38.080002,1770467753.040148
-3.8417922000000004,0.11250108000000002,8.985724560000001,2.52,-18.9,38.080002,1770467753.04816
-3.5377999200000003,0.44761068000000004,9.07428924,7.0,-22.540001,37.869999,1770467753.056157
-3.2553504,0.81862488,9.134130240000001,8.33,-27.440001,38.990002,1770467753.06423
-2.92502808,1.0579888800000001,9.08865108,9.45,-30.24,34.02,1770467753.072206
-2.7478987200000002,1.32128928,9.11737476,9.24,-30.66,36.82,1770467753.080149
-2.692845,1.7688999600000002,9.04556556,10.36,-29.75,41.650002,1770467753.088208
-2.7694414800000002,2.13273324,8.916309,7.77,-27.23,43.889999,1770467753.096157
-2.85082524,2.47023648,8.93545812,5.32,-25.549999,47.740002,1770467753.104144
-2.91784716,2.7048132000000003,8.92109628,5.11,-22.469999,47.040001,1770467753.112154
-3.0734337600000003,2.99923092,8.851680720000001,3.43,-21.49,46.27,1770467753.120148
-3.3032232,3.31997868,8.746360560000001,4.41,-21.280001,43.82,1770467753.128144
-3.5497681200000004,3.6885992400000003,8.590773960000002,0.21,-20.09,42.630001,1770467753.136162
-3.8824840800000002,3.92317596,8.44715556,-0.63,-20.23,41.02,1770467753.144236
-4.1170608,4.17211452,8.3418354,-3.78,-20.440001,31.57,1770467753.152145
-4.16253996,4.65323616,8.31550536,-6.44,-24.219999,36.470001,1770467753.160144
-4.50243684,4.55030964,8.550082080000001,-9.52,-28.559999,33.669998,1770467753.168144
-4.65323616,4.2965838,8.904340800000002,-13.02,-34.02,31.85,1770467753.176165
-4.7394072000000005,3.9136014000000006,8.90194716,-12.81,-37.939999,31.43,1770467753.184263
-4.70589624,3.64312008,8.70806232,-13.65,-43.400002,24.709999,1770467753.192145
-4.4904686400000005,3.4420543200000004,8.980937280000001,-13.02,-47.880001,22.68,1770467753.200145
-4.11945444,3.1452429600000005,9.79956216,-17.219999,-48.580002,15.19,1770467753.208131
-3.60960912,2.89869804,10.931753879999999,-20.02,-46.41,14.14,1770467753.216144
-2.95135812,2.7766224000000004,11.752772400000001,-25.129999,-41.650002,10.08,1770467753.224149
-2.33140536,2.69763228,11.946657240000002,-31.99,-36.470001,6.37,1770467753.232264
-1.71384624,2.59231212,11.534951160000002,-35.139999,-34.02,1.68,1770467753.240161
-1.25187372,2.5276838400000003,10.96047756,-35.07,-33.950001,2.94,1770467753.248167
-0.84495492,2.5755566400000003,10.38121668,-33.810001,-36.259998,10.92,1770467753.256148
-0.68458104,2.64975948,9.94318056,-31.360001,-35.139999,11.2,1770467753.264173
-0.7396347600000001,2.56837572,9.6463692,-30.450001,-34.23,16.309999,1770467753.27231
-0.5625054,2.50614108,9.24902496,-28.35,-31.92,14.14,1770467753.280143
-0.37819512000000005,2.20693608,9.059927400000001,-24.57,-28.77,21.91,1770467753.28813
-0.36143964000000006,1.5702278400000003,8.9641818,-21.209999,-24.360001,21.77,1770467753.296156
-0.47633436000000007,0.9263386800000001,8.72721144,-17.08,-16.379999,26.879999,1770467753.304188
-0.6558573600000001,0.40213152,8.420825520000001,-11.2,-2.45,23.59,1770467753.312153
-0.8712849600000001,0.14122476,8.4615174,-7.21,8.96,24.15,1770467753.320145
-1.0603825199999999,0.07659648000000001,8.851680720000001,-4.2,18.969999,23.799999,1770467753.32813
-1.2638419200000002,0.2034594,9.47402712,-9.31,29.4,26.040001,1770467753.336152
-1.52474868,0.39016332000000004,10.086798960000001,-8.68,36.259998,27.370001,1770467753.344154
-1.7832618,0.6079845600000001,10.67324076,-17.639999,39.060001,25.059999,1770467753.352165
-1.9771466400000002,0.4667598,10.946115720000002,-19.67,35.84,24.01,1770467753.360153
-2.06092404,0.019149120000000002,10.78095456,-22.959999,30.1,28.209999,1770467753.368152
-2.09204136,-0.6223464,10.38600396,-18.620001,21.0,26.18,1770467753.376264
-2.08486044,-1.10346804,10.084405320000002,-12.88,14.42,30.799999,1770467753.384168
-1.9962957600000002,-1.70427168,10.14663996,-5.67,8.33,30.309999,1770467753.392156
-2.1447014400000004,-2.0298067200000003,10.19930004,-3.22,4.83,34.16,1770467753.400154
-3.0159864,-2.78619696,10.271109240000001,-0.84,3.22,24.57,1770467753.408152
-2.4319382400000005,-2.25720252,9.952755119999999,1.19,-0.35,17.85,1770467753.416266
-2.39364,-1.8502837200000002,9.876158640000002,6.09,-5.81,19.74,1770467753.424153
-2.31464988,-1.41703488,9.88094592,5.39,-12.46,13.93,1770467753.43215
-2.2619898000000003,-1.07474436,9.72057204,4.76,-17.5,17.57,1770467753.440157
-2.18299968,-0.90240228,9.5865282,4.9,-24.92,16.17,1770467753.448182
-1.9556038800000002,-0.78750756,9.4189734,6.51,-31.15,14.84,1770467753.456236
-1.60613244,-0.73724112,9.45727164,9.1,-38.150002,15.26,1770467753.464176
-1.17527724,-0.58165452,9.75887028,10.22,-44.799999,2.87,1770467753.472238
-0.7539966,-0.3829824,10.108341720000002,7.42,-49.209999,0.0,1770467753.480281
-0.33032232,-0.18431028,10.34291844,7.0,-52.57,-8.4,1770467753.488156
0.06941556,0.04069188,10.328556599999999,6.58,-53.549999,-13.86,1770467753.496153
0.5026644,0.33750324,10.283077440000001,7.0,-53.689999,-18.969999,1770467753.504183
0.897615,0.84734856,10.38121668,8.4,-55.02,-27.02,1770467753.512148
1.3428320400000002,1.40267304,10.63733616,7.91,-55.23,-30.52,1770467753.520149
1.30214016,1.6228879200000002,10.92457296,6.23,-50.889999,-40.950001,1770467753.528182
1.58937696,1.6468243200000001,10.95808392,1.33,-45.990002,-42.209999,1770467753.536234
2.3816718,1.7090589600000001,10.658878920000001,-1.47,-46.48,-45.779999,1770467753.544157
4.07636892,2.3816718,10.144246320000002,-0.42,-45.080002,-30.52,1770467753.552158
2.38406544,3.0351355200000003,10.5080796,3.29,-41.23,-15.12,1770467753.560153
2.3002880400000003,3.1045510800000002,10.20169368,-0.42,-32.48,-12.32,1770467753.568151
2.20693608,3.0614655600000003,9.67269924,0.21,-25.9,-7.98,1770467753.576174
2.19496788,3.20987124,9.205939440000002,4.62,-18.34,0.56,1770467753.584156
2.1159777600000003,3.66705648,8.98333092,10.57,-12.25,-0.77,1770467753.592194
2.2404470400000003,3.8537604000000005,8.961788160000001,13.79,-8.96,4.2,1770467753.600157
2.44390644,3.5377999200000003,9.08625744,11.9,-5.6,10.43,1770467753.608156
2.6808768000000005,2.66412132,9.02162916,5.67,1.19,22.68,1770467753.616155
2.6569404000000003,1.71863352,8.585986680000001,3.01,15.89,32.689999,1770467753.624134
2.43911916,0.9287323200000001,8.310718080000001,6.79,31.43,41.860001,1770467753.632195
2.02501944,0.58165452,8.660189520000001,10.64,50.259998,43.540001,1770467753.640158
1.3739493600000001,0.67500648,9.335196,12.46,67.900002,44.450001,1770467753.648157
0.47633436000000007,0.7731457199999999,10.02695796,10.15,83.93,46.130001,1770467753.656159
-0.65107008,0.69176196,10.479355920000001,2.87,98.629997,45.5,1770467753.664157
-1.9149120000000002,0.45000432000000007,10.61100612,-1.89,106.889999,39.200001,1770467753.672161
-2.85800616,0.28963044000000004,10.730688120000002,-2.03,105.209999,39.759998,1770467753.68016
-3.6000345600000005,-0.033510960000000006,11.23335252,0.98,92.889999,39.41,1770467753.688152
-4.96919664,-0.33271596000000003,11.482291080000001,2.03,80.779999,35.209999,1770467753.696152
-5.842875240000001,-1.1728836,11.475110160000002,-5.67,74.480003,36.119999,1770467753.704161
-6.21628308,-1.47687588,10.80967824,-8.47,56.07,17.5,1770467753.712331
-6.33596508,-1.2805974,10.132278120000002,-4.55,33.18,17.99,1770467753.720143
-6.254581320000001,-0.83059308,9.754083,-0.14,6.65,14.35,1770467753.728152
-5.88596076,-0.46436616000000003,9.4429098,-2.03,-18.9,16.17,1770467753.736155
-5.17504968,-0.14840568,9.37588788,-1.54,-35.91,16.66,1770467753.74415
-4.37557392,0.09813924000000002,9.490782600000001,-3.71,-44.52,16.73,1770467753.752183
-3.68141832,0.22500216000000003,9.53626176,-2.45,-48.02,16.799999,1770467753.760153
-3.1165192800000003,0.37340784000000005,9.533868120000001,-1.82,-46.759998,11.69,1770467753.768155
-2.64975948,0.54335628,9.349557840000001,-4.41,-42.91,13.02,1770467753.776183
-2.42236368,0.7539966,9.201152160000001,-3.08,-33.32,17.43,1770467753.784153
-2.30507532,1.1130426000000002,9.17242848,-1.47,-24.360001,13.23,1770467753.792271
-2.3864590800000003,1.63006884,9.404611560000001,0.21,-13.58,12.81,1770467753.800162
-2.56358844,2.23565976,9.816317640000001,-0.7,-5.81,11.27,1770467753.80815
-2.8915171200000005,2.9872627200000004,10.347705720000002,-0.91,1.54,5.88,1770467753.816161
-3.2936486400000002,3.6048218400000005,10.76180544,-3.99,7.28,1.68,1770467753.824156
-3.6479073600000005,3.9925915200000004,10.95808392,-9.03,8.4,-6.65,1770467753.832162
-3.82024944,3.87051588,10.9987758,-12.46,6.65,-13.58,1770467753.840234
-3.8824840800000002,3.62157732,10.87670016,-12.11,-1.33,-21.209999,1770467753.848165
-3.7556211600000005,3.2912550000000005,10.74983724,-14.35,-7.35,-25.059999,1770467753.856192
-3.74125932,2.9705072400000003,10.26632196,-12.32,-14.0,-27.16,1770467753.864183
-3.6862056,2.56358844,8.832531600000001,-6.65,-22.469999,-35.209999,1770467753.872159
-3.5186508,2.59231212,7.53039144,-0.42,-30.030001,-37.799999,1770467753.88017
-3.30561684,3.01119912,7.62613704,4.41,-37.099998,-36.68,1770467753.888152
-3.02316732,3.49232076,8.4734856,1.12,-43.470001,-38.080002,1770467753.89614
-2.79098424,3.37981968,8.94742632,-6.3,-46.900002,-33.669998,1770467753.904174
-2.4127891200000002,2.6330040000000006,8.70806232,-6.23,-51.799999,-38.919998,1770467753.912277
-1.93645476,1.7688999600000002,8.51896476,-6.58,-54.529999,-39.34,1770467753.92017
-1.3045338,1.20400092,8.86604256,-3.92,-56.700001,-36.189999,1770467753.928149
-0.56489904,0.9359132400000001,9.68945472,-6.02,-58.450001,-35.209999,1770467753.936148
0.24175764,0.76357116,10.455419520000001,-10.22,-59.009998,-27.23,1770467753.944209
0.7611775199999999,0.60559092,11.09691504,-13.23,-58.380001,-24.57,1770467753.95215
1.2399055200000002,0.3710142,11.458354680000001,-19.879999,-54.740002,-17.360001,1770467753.960154
1.8526773600000002,0.1914912,11.71208052,-19.18,-49.07,-15.61,1770467753.968152
2.65933404,0.0239364,11.949050880000001,-13.93,-44.869999,-1.89,1770467753.976709
2.9393899200000004,0.038298240000000004,12.09506292,-8.75,-37.450001,9.87,1770467753.984954
2.78619696,-0.11010744,11.9801682,-7.98,-29.75,17.99,1770467753.992173
2.50614108,-0.17712936,11.58043032,-7.91,-17.85,26.110001,1770467754.000184
2.03938128,-0.39255696000000007,11.04904224,-12.11,-6.44,29.75,1770467754.008163
1.5175677600000002,-0.63910188,10.479355920000001,-17.08,3.15,33.389999,1770467754.016172
0.9263386800000001,-0.9526687200000001,9.95993604,-20.02,10.78,33.040001,1770467754.024227
0.54096264,-1.16330904,9.48599532,-22.26,14.0,32.970001,1770467754.032137
0.22021488,-1.2853846800000002,9.170034840000001,-28.209999,13.93,30.450001,1770467754.04014
-0.11728836000000001,-1.35001296,8.765509680000001,-31.360001,9.66,26.389999,1770467754.048159
-0.21782124000000003,-1.50320592,8.36816544,-29.68,3.64,30.52,1770467754.056336
-0.07420284,-1.63724976,8.10965232,-28.35,-7.28,30.1,1770467754.064152
0.12207564000000001,-1.67794164,8.19582336,-24.360001,-17.219999,23.450001,1770467754.072154
0.58883544,-1.6851225600000002,8.554869360000001,-20.860001,-23.59,19.110001,1770467754.080162
1.17048996,-1.4936313600000002,9.193971240000002,-17.92,-24.639999,12.39,1770467754.088179
1.98911484,-1.2925655999999999,9.96711696,-20.860001,-26.6,8.54,1770467754.096178
2.812527,-1.17048996,10.479355920000001,-21.629999,-27.09,2.94,1770467754.104276
3.52822536,-0.87607224,10.85755104,-20.440001,-26.530001,-2.1,1770467754.112142
4.330094760000001,-0.56489904,10.955690279999999,-18.48,-29.540001,4.97,1770467754.120143
4.59339516,-0.32074776000000005,10.62297432,-16.870001,-31.290001,10.22,1770467754.128155
4.3827548400000005,-0.01436184,9.51711264,-12.81,-32.900002,15.4,1770467754.136147
3.7268974800000003,0.04069188,7.95167208,-1.82,-25.620001,17.85,1770467754.14414
2.99683728,0.05505372,6.1755912,17.43,-11.9,16.030001,1770467754.152242
2.573163,-0.11250108000000002,5.251646160000001,35.0,5.95,19.110001,1770467754.160179
2.27874528,-0.11010744,5.455105560000001,52.849998,29.469999,23.030001,1770467754.168144
2.453481,0.45239796,6.558573600000001,62.580002,50.610001,42.77,1770467754.176172
2.0681049600000003,0.8712849600000001,8.420825520000001,64.400002,70.279999,52.080002,1770467754.184181
1.6635798000000002,1.23511824,10.01498976,55.16,82.32,55.580002,1770467754.192233
1.0292652,1.6420370400000002,11.142394200000002,48.23,89.389999,60.759998,1770467754.200215
0.10771380000000001,1.9149120000000002,11.62351584,38.779999,94.080002,62.299999,1770467754.208169
-1.16570268,2.0896477200000003,11.91075264,30.59,100.730003,63.98,1770467754.216256
-2.44390644,2.1901806,12.21474492,20.65,109.620003,63.77,1770467754.224133
-4.083549840000001,2.4175764,12.42777888,15.33,121.169998,59.849998,1770467754.232145
-4.9428666,2.4319382400000005,12.29852232,6.79,123.760002,60.619999,1770467754.240139
-5.976919080000001,2.44390644,11.922720840000002,-2.45,117.18,61.110001,1770467754.248146
-6.91283232,2.16863784,11.28840624,-10.99,105.139999,55.93,1770467754.256174
-7.4083158000000005,1.8742201200000002,10.46978136,-17.99,87.849998,48.439999,1770467754.264138
-7.45140132,2.01783852,9.63918828,-21.42,64.68,43.540001,1770467754.272174
-7.121079,2.4415128,9.05514012,-19.879999,38.290001,41.790001,1770467754.280155
-6.51309444,3.0040182,8.70566868,-21.98,7.21,40.32,1770467754.28813
-5.9170780800000005,3.3965751600000003,8.538113880000001,-22.68,-24.92,33.459999,1770467754.296134
-5.20137972,3.53540628,8.41125096,-22.68,-51.029999,39.900002,1770467754.304158
-4.47371316,3.53540628,8.18864244,-22.889999,-69.790001,31.15,1770467754.31217
-3.6359391600000004,3.3702451200000003,7.72427628,-24.709999,-79.800003,33.880001,1770467754.320275
-2.98486908,3.1213065600000003,7.13783448,-19.459999,-83.510002,32.900002,1770467754.32815
-2.42715096,3.06625284,6.7285220400000005,-16.030001,-80.709999,40.32,1770467754.336151
-2.07289224,3.111732,6.860172240000001,-8.54,-73.779999,39.970001,1770467754.344134
-1.8191664,3.15003024,7.63092432,-5.11,-63.91,37.939999,1770467754.352196
-1.7473572000000002,3.15481752,8.73917964,-3.22,-51.029999,32.130001,1770467754.36017
-1.9723593600000002,3.0877956,9.14849208,-0.35,-38.849998,26.809999,1770467754.368152
-2.3984272800000004,3.00162456,8.95460724,1.75,-29.540001,19.18,1770467754.376161
-2.8795489200000004,2.9417835599999997,8.80141428,6.02,-22.68,13.02,1770467754.384304
-3.19072212,2.7814096800000003,9.18439668,7.56,-21.49,-0.91,1770467754.392129
-3.43247976,2.4750237600000005,10.14185268,4.2,-21.35,-7.49,1770467754.400148
-3.530619,2.13991416,10.955690279999999,2.87,-25.690001,-17.57,1770467754.408156
-3.4779589200000003,1.57740876,11.379364559999999,-1.12,-37.450001,-26.67,1770467754.416148
-3.19072212,0.7707520800000001,12.20038308,0.42,-48.790001,-27.93,1770467754.424149
-2.5588011600000002,0.0957456,13.660503480000001,3.08,-59.849998,-37.869999,1770467754.432158
-1.4433649200000003,-0.44761068000000004,15.30493416,3.71,-65.800003,-41.299999,1770467754.440219
-0.27526860000000003,-0.6008036400000001,16.5639888,1.89,-68.879997,-41.509998,1770467754.448165
0.7539966,-0.46436616000000003,17.265325320000002,-5.11,-68.669998,-41.580002,1770467754.456153
2.01783852,-0.6031972800000001,17.2461762,-20.299999,-68.459999,-37.52,1770467754.464148
3.10694472,-0.81623124,16.19776188,-34.09,-70.559998,-28.84,1770467754.472156
3.7939194,-0.84495492,14.591629440000002,-47.740002,-72.099998,-20.51,1770467754.480242
3.99019788,-0.7851139200000001,12.985497000000002,-53.34,-64.82,-9.31,1770467754.488159
4.0261024800000005,-0.68458104,11.58761124,-57.540001,-47.950001,5.18,1770467754.496135
3.89205864,-0.55532448,10.38121668,-60.970001,-24.85,11.9,1770467754.504239
3.58327908,-0.35425872,9.21790764,-63.07,3.29,19.67,1770467754.512183
2.9752945200000003,-0.07420284,7.8631074000000005,-62.23,35.630001,18.83,1770467754.520179
2.50853472,1.29735288,6.39580608,-50.68,58.59,41.299999,1770467754.528146
1.6037388,1.6420370400000002,5.471861039999999,-46.48,77.07,47.040001,1770467754.536136
0.71569836,2.154276,4.59339516,-43.119999,89.739998,55.09,1770467754.544155
0.052660080000000005,2.6090676,4.15057176,-33.740002,97.510002,63.98,1770467754.552197
-0.5864418,2.6449722,4.234349160000001,-29.33,98.699997,70.699997,1770467754.560167
-0.9933606,2.4798110400000004,4.397116680000001,-25.969999,96.459999,79.379997,1770467754.568159
-1.2686292,2.1973615200000003,4.7154708,-19.32,88.129997,81.059998,1770467754.576195
-1.3883112000000002,1.98911484,4.9308984,-12.53,76.019997,84.910004,1770467754.584166
-1.4481522,1.83352824,5.0098885200000005,-6.02,63.0,83.089996,1770467754.592137
-1.4673013200000002,1.45054584,4.8471210000000005,1.47,47.040001,83.650002,1770467754.600154
-1.32128928,0.87607224,4.72265172,11.76,29.75,80.709999,1770467754.60815
-0.87607224,0.39016332000000004,5.0098885200000005,20.09,12.88,69.860001,1770467754.616155
-0.46197252000000005,-0.009574560000000001,5.845268880000001,26.32,2.52,68.669998,1770467754.62418
0.17473572,-0.48590892,6.74527752,29.469999,-2.38,58.73,1770467754.632187
0.7683584400000001,-1.077138,7.812840960000001,28.77,-0.14,55.790001,1770467754.640146
1.47687588,-1.9196992800000001,9.52429356,27.65,6.16,57.68,1770467754.648184
2.06092404,-2.4654492,11.6929314,22.889999,15.12,53.689999,1770467754.656155
1.9986894000000002,-4.904568360000001,14.481522,9.94,30.73,48.16,1770467754.664307
0.91915776,-6.21867672,15.596958240000001,-7.98,57.119999,33.810001,1770467754.672153
1.0101160800000002,-7.4442204,15.570628200000002,-15.12,74.059998,28.139999,1770467754.680167
0.34947144,-7.77214908,15.398286120000002,-7.91,88.269997,28.42,1770467754.688161
-0.88085952,-7.31496384,15.35280696,1.33,103.739998,32.27,1770467754.696136
-2.5492266,-6.09899472,15.374349720000001,14.77,122.43,33.32,1770467754.704167
-4.6316934000000005,-4.56227784,15.32168964,16.66,143.080002,25.48,1770467754.712273
-6.42213612,-2.79577152,14.967430920000002,14.0,158.059998,13.02,1770467754.720149
-7.9061929200000005,-0.87607224,14.64189588,10.57,158.970001,-0.42,1770467754.728148
-8.844499800000001,1.08192528,13.880718360000001,4.55,147.699997,-13.37,1770467754.73615
-9.18679032,2.85082524,12.93044328,-3.36,120.260002,-18.83,1770467754.744228
-9.01923552,3.89205864,11.75995332,-9.03,82.599998,-28.84,1770467754.752319
-8.370559080000001,4.0931244,10.64212344,-15.82,42.0,-29.610001,1770467754.760164
-7.31735748,3.8178558000000002,9.404611560000001,-14.98,1.96,-25.48,1770467754.768157
-6.12053748,3.5545554,7.899012000000001,-15.54,-27.440001,-24.360001,1770467754.776149
-4.8686637600000005,3.2409885600000004,6.65910648,-12.67,-48.509998,-23.309999,1770467754.784142
-3.76758936,3.3463087200000006,5.4814356,-5.81,-64.889999,-29.82,1770467754.792137
-3.0040182,3.63354552,5.0386122,0.84,-72.029999,-31.639999,1770467754.800141
-1.7497508400000001,4.46174496,3.7149292800000002,11.2,-75.389999,-15.12,1770467754.808153
-1.077138,4.6963216800000005,3.06864648,15.33,-77.980003,-3.22,1770467754.816162
-0.6941556000000001,4.5455223600000005,2.35534176,15.19,-84.209999,12.81,1770467754.824165
-0.32074776000000005,4.21759368,1.74017628,10.92,-87.43,15.19,1770467754.832265
0.08377740000000002,3.7077483600000005,1.49841864,7.14,-90.230003,21.139999,1770467754.840152
0.51223896,3.1643920800000003,1.8000172800000003,7.07,-86.800003,23.940001,1770467754.848154
1.1417662800000001,2.94896448,2.47023648,5.32,-76.440002,29.120001,1770467754.856142
1.53432324,2.90109168,3.66466284,2.45,-61.25,32.27,1770467754.864163
1.6492179599999999,2.87715528,5.4527119200000005,-2.45,-33.669998,28.49,1770467754.872146
1.5941642400000002,2.64018492,7.420284,-13.58,3.99,20.790001,1770467754.880376
1.31889564,2.07289224,9.69663564,-21.209999,46.900002,13.51,1770467754.888161
0.5361753600000001,1.22793732,12.21474492,-22.540001,90.790001,12.04,1770467754.896177
-0.97181784,-0.059841000000000005,14.66583228,-12.18,132.300003,11.76,1770467754.904153
-2.96571996,-1.18724544,18.2275686,2.38,164.289993,17.43,1770467754.912153
-4.952441159999999,-2.10400956,21.08078748,24.08,163.589996,32.900002,1770467754.920163
-9.66551832,-4.03567704,22.062179880000002,18.969999,156.729996,43.330002,1770467754.928374
-10.5679206,-4.7154708,19.812158280000002,6.09,129.5,24.360001,1770467754.936141
-11.470322880000001,-6.2593686,18.7422012,-4.48,83.089996,19.110001,1770467754.944146
-11.6330904,-7.176132720000001,17.3778264,-13.65,31.08,7.42,1770467754.952148
-11.039467680000001,-7.09235532,15.584990040000001,-22.120001,-13.58,-10.64,1770467754.960149
-9.5506236,-6.95113056,13.942953000000001,-35.560001,-46.48,-20.09,1770467754.968166
-7.55672148,-5.804577,12.3392142,-45.360001,-67.129997,-30.379999,1770467754.976245
-5.35217904,-4.287009240000001,10.80010368,-49.209999,-79.870003,-25.83,1770467754.984298
-3.5210444400000003,-2.2835325600000003,9.23226948,-45.080002,-90.580002,-23.66,1770467754.992189
-2.09922228,-0.28484316,8.08810956,-40.529999,-100.870003,-14.7,1770467755.00015
-0.8425612800000001,1.16330904,7.379592120000001,-35.209999,-107.099998,-2.59,1770467755.008173
-0.20585304000000001,1.46490768,6.95113056,-35.419998,-109.760002,2.59,1770467755.016152
-0.052660080000000005,1.88379468,5.95537632,-37.240002,-102.129997,9.31,1770467755.024153
4.46174496,5.507765640000001,3.60960912,-31.43,-117.459999,31.57,1770467755.03227
2.04895584,3.82503672,3.65748192,-23.799999,-119.0,53.759998,1770467755.040151
2.16863784,3.66466284,2.67130224,-25.9,-119.209999,63.560001,1770467755.048157
2.0944350000000003,3.04710372,1.6468243200000001,-28.0,-112.139999,70.279999,1770467755.056162
2.05134948,2.71199412,0.56489904,-20.02,-101.360001,73.779999,1770467755.064244
1.8478900800000002,2.4056082,-0.21782124000000003,-10.57,-81.550003,74.410004,1770467755.072174
1.69469712,2.4654492,-0.53378172,1.54,-56.700001,76.019997,1770467755.080259
1.75693176,2.4630555600000004,0.059841000000000005,12.53,-28.700001,70.07,1770467755.088145
2.09204136,2.31464988,1.39788576,17.99,3.5,71.540001,1770467755.096127
2.44390644,2.3864590800000003,3.2242330800000003,22.33,38.009998,62.09,1770467755.10415
2.8795489200000004,2.75507964,5.62266036,21.209999,74.620003,50.400002,1770467755.11218
3.26492496,2.9824754400000004,8.179067880000002,20.23,107.029999,37.939999,1770467755.120246
3.1883284800000005,2.8005588,10.062862560000001,16.030001,134.050003,24.639999,1770467755.128139
2.53965204,2.2021488000000002,11.702505960000002,9.45,158.830002,12.11,1770467755.13614
1.5415041600000001,1.1848518000000001,13.399596720000002,2.87,178.149994,5.88,1770467755.144146
0.35186508,-0.21303396,15.7022784,-5.74,186.339996,-2.66,1770467755.152136
-1.16330904,-1.37873664,19.29752568,-13.44,180.179993,-5.11,1770467755.160179
-3.0997638,-3.19072212,22.54330152,-3.15,163.729996,1.47,1770467755.168351
-6.72134112,-8.679338640000001,25.731630000000003,-6.58,145.949997,2.59,1770467755.176138
-8.777477880000001,-7.573476960000001,22.488247800000003,-11.97,119.629997,-13.58,1770467755.184156
-9.72057204,-8.131195080000001,19.539283320000003,-12.81,96.739998,-15.05,1770467755.192129
-10.321375680000001,-7.865501040000001,16.37489124,-18.76,81.830002,-17.639999,1770467755.200172
-10.555952400000002,-6.7931503200000005,13.555183320000001,-23.66,70.489998,-22.75,1770467755.208144
-10.115522640000002,-4.9428666,11.125638720000001,-29.540001,59.080002,-34.650002,1770467755.216145
-9.46923984,-2.96571996,9.490782600000001,-34.439999,43.82,-41.369999,1770467755.224147
-8.6530086,-1.29735288,8.83013796,-35.139999,26.950001,-53.41,1770467755.232223
-7.896618360000001,-0.10292652000000001,8.64582768,-36.330002,13.3,-56.700001,1770467755.240152
-7.0732062,0.62474004,8.18864244,-37.240002,-0.7,-55.16,1770467755.248141
-6.2737304400000005,1.17767088,7.413103080000001,-41.369999,-14.35,-52.43,1770467755.256165
-5.47904196,1.63246248,6.31442232,-42.630001,-29.469999,-48.650002,1770467755.264149
-4.63887432,1.9292738400000002,5.266008000000001,-40.529999,-45.639999,-47.950001,1770467755.272194
-3.7340784,1.9986894000000002,4.55509692,-36.68,-63.209999,-43.540001,1770467755.28027
-2.8723680000000003,1.6396434000000002,4.15057176,-30.870001,-79.239998,-41.09,1770467755.288132
-2.4678428400000003,1.5079932,3.76519572,-22.33,-87.080002,-39.900002,1770467755.296131
-1.96757208,0.71330472,3.3343405200000005,-17.01,-87.709999,-27.440001,1770467755.304162
-0.8114439600000001,1.08192528,2.7646542000000003,-4.69,-82.32,-5.81,1770467755.312219
-0.86410404,0.66303828,2.86279344,1.12,-74.339996,14.14,1770467755.320157
-0.65107008,0.38537604000000003,3.2242330800000003,11.2,-60.759998,25.48,1770467755.328152
-0.63910188,0.33750324,3.6742374,14.28,-42.139999,44.799999,1770467755.336154
-0.8856468000000001,0.29681136,4.35163752,20.370001,-21.559999,55.93,1770467755.344253
-1.50081228,0.06462828000000001,5.072123160000001,21.139999,3.99,64.120003,1770467755.352149
-2.23087248,-0.24415128000000003,5.9170780800000005,27.440001,28.42,71.190002,1770467755.360143
-3.0973701600000005,-0.57207996,7.185707280000001,32.759998,47.18,73.43,1770467755.368145
-4.7633436,-0.97899876,8.93067084,36.540001,67.620003,67.690002,1770467755.376147
-6.893683200000001,-2.54443932,10.77856092,38.639999,79.940002,45.220001,1770467755.384163
-9.06710832,-4.32530748,12.13096752,50.400002,85.190002,40.32,1770467755.392142
-11.190267,-5.9386208400000005,12.959166960000001,52.220001,76.510002,38.080002,1770467755.400146
-13.31821296,-7.85832012,14.05545408,47.950001,53.759998,30.66,1770467755.408211
-14.754396960000001,-9.72296568,15.319296000000001,40.25,28.0,20.790001,1770467755.416151
-13.916622960000002,-10.24956648,15.958397880000001,38.990002,-8.47,10.71,1770467755.424152
-11.58761124,-9.588921840000001,15.778874880000002,39.34,-59.43,-0.21,1770467755.432201
-9.292110480000002,-7.80566004,15.438978000000002,36.75,-103.110001,3.29,1770467755.440158
-7.0301206800000005,-5.627447640000001,15.314508720000001,31.85,-135.309998,-1.26,1770467755.448152
-4.8686637600000005,-3.17396664,15.25466772,17.92,-150.429993,-1.33,1770467755.456153
-3.08061468,-0.81623124,14.95306908,4.48,-151.130005,0.98,1770467755.464135
-1.42660944,1.0555952400000002,14.17752972,-12.67,-145.320007,2.24,1770467755.472159
-0.06462828000000001,2.37927816,12.67911108,-31.639999,-135.309998,6.72,1770467755.480423
0.35425872,2.49177924,11.04186132,-46.900002,-125.300003,6.02,1770467755.48817
0.6558573600000001,2.8795489200000004,9.337589640000001,-51.169998,-111.580002,-7.07,1770467755.49614
3.83700492,5.5604257200000005,7.42507128,-23.030001,-111.300003,15.4,1770467755.50473
3.2242330800000003,5.12717688,7.32932568,-20.09,-108.43,36.959999,1770467755.512194
3.26253132,5.08887864,6.268943160000001,-17.85,-95.900002,58.380001,1770467755.520339
3.0255609600000004,4.966803,4.591001520000001,-12.25,-83.370003,56.700001,1770467755.528141
2.54443932,4.686747120000001,2.64975948,2.31,-66.989998,66.919998,1770467755.536135
2.1159777600000003,4.06200708,1.0986807600000001,16.799999,-48.650002,64.82,1770467755.544148
1.7832618,3.50428896,0.07659648000000001,32.34,-28.139999,57.82,1770467755.55215
1.55107872,3.17875392,-0.20824668000000002,43.540001,-4.27,59.5,1770467755.56018
1.4457585600000002,3.00641184,-0.06223464,52.57,17.5,55.439999,1770467755.568177
1.48884408,2.8197079200000004,0.32074776000000005,52.43,37.73,55.439999,1770467755.576254
1.6181006400000002,2.76704784,1.24948008,49.209999,52.639999,49.419998,1770467755.584159
1.9053374400000003,2.88194256,2.97290088,41.02,67.690002,41.650002,1770467755.592145
1.9986894000000002,3.05907192,4.7154708,21.42,82.529999,34.580002,1770467755.60015
1.92448656,2.83406976,5.8739925600000005,7.21,95.269997,27.860001,1770467755.608256
1.57740876,2.27635164,7.13065356,-5.25,106.610001,13.02,1770467755.61618
0.95506236,1.6468243200000001,8.97615,-10.64,116.199997,-2.03,1770467755.624153
0.33032232,0.49548348,11.44878012,-18.129999,132.720001,-11.13,1770467755.632153
-0.09813924000000002,-0.96224328,14.53657572,-22.26,147.630005,-13.86,1770467755.640156
-0.7396347600000001,-2.63779128,18.591401880000003,-13.44,153.369995,-9.45,1770467755.648219
-0.16994844,-8.7607224,23.857409880000002,-7.63,144.690002,17.780001,1770467755.65616
-6.2713368,-12.17644668,26.114612400000002,0.0,160.789993,-11.13,1770467755.664176
-7.401134880000001,-13.179381840000001,25.99253676,13.79,145.600006,-18.41,1770467755.672159
-8.758328760000001,-11.65223952,23.694642360000003,24.85,121.169998,0.0,1770467755.68016
-9.20833308,-9.03359736,19.922265720000002,24.08,98.839996,-7.63,1770467755.688165
-9.201152160000001,-6.68304288,15.97515336,18.76,84.629997,-1.12,1770467755.696137
-8.95939452,-4.62929976,13.05491256,13.79,73.290001,-8.96,1770467755.704157
-8.73199872,-2.76704784,11.14478784,10.22,71.610001,-17.360001,1770467755.712251
-8.5452948,-1.17767088,10.074830760000001,7.14,73.43,-29.610001,1770467755.720155
-8.5452948,0.27766224,9.38785608,4.13,76.160004,-40.32,1770467755.728147
-8.648221320000001,1.5127804800000002,8.624284920000001,-4.34,74.480003,-40.529999,1770467755.736148
-8.734392360000001,2.3457672,7.83438372,-10.92,65.379997,-42.279999,1770467755.74426
-8.60274216,2.85561252,6.83862948,-19.32,47.810001,-44.310001,1770467755.752147
-8.12401416,3.2002966800000006,5.73037416,-21.35,23.870001,-46.689999,1770467755.760181
-7.410709440000001,3.3032232,4.79206728,-18.34,-2.59,-47.810001,1770467755.768153
-6.57293544,3.3965751600000003,3.8465794800000004,-13.3,-30.24,-46.34,1770467755.776155
-5.356966320000001,3.0614655600000003,3.4827462000000002,-1.75,-55.860001,-45.220001,1770467755.784164
-4.3564248,2.5707693600000003,3.0638592,6.79,-79.449997,-48.369999,1770467755.792153
-4.29419016,4.01174064,1.70187804,25.41,-80.080002,-42.98,1770467755.800159
-2.7263559600000002,4.10030532,1.4098539600000002,36.330002,-101.779999,-1.47,1770467755.80817
-2.3290117200000005,4.10269896,1.2087882,40.18,-110.459999,8.54,1770467755.816166
-1.8814010400000003,4.0213152,1.19442636,42.349998,-117.110001,29.33,1770467755.824158
-1.52714232,3.91599504,1.48645044,45.220001,-114.449997,32.200001,1770467755.832266
-1.3117147200000001,3.64312008,2.0298067200000003,46.970001,-102.480003,48.580002,1770467755.840181
-1.11543624,3.15721116,2.8197079200000004,55.23,-83.93,54.040001,1770467755.848153
-0.97181784,2.4510873600000003,4.22716824,59.5,-55.02,56.77,1770467755.856156
-0.99096696,1.73778264,6.1660166400000005,65.239998,-20.23,54.669998,1770467755.864159
-1.46490768,1.01250972,8.578805760000002,64.190002,20.299999,38.150002,1770467755.872151
-2.3433735600000003,0.3829824,11.17351152,67.970001,63.07,32.549999,1770467755.880153
-4.234349160000001,-0.08138376,14.05784772,71.959999,95.059998,20.299999,1770467755.888175
-7.8295964399999995,-0.72527292,16.566382439999998,72.099998,115.919998,22.469999,1770467755.896181
-12.367937880000001,-2.3170435200000004,17.84219256,64.889999,120.400002,-0.77,1770467755.904175
-14.91716448,-3.52822536,17.65070136,57.959999,99.050003,-18.83,1770467755.912156
-14.89801536,-5.06494224,17.68181868,45.990002,49.419998,-16.52,1770467755.920164
-14.23976436,-6.383837880000001,17.00920584,44.169998,-20.16,-12.88,1770467755.928153
-13.03576344,-7.003790640000001,16.958939400000002,34.790001,-86.379997,-16.940001,1770467755.936207
-10.9628712,-6.450859800000001,17.092983240000002,26.459999,-136.779999,-16.59,1770467755.94419
-8.174280600000001,-5.2301034,17.02356768,13.09,-168.910004,-28.559999,1770467755.952151
-5.20856064,-3.40375608,16.57356336,0.21,-184.100006,-31.01,1770467755.960157
-2.5181092800000004,-1.5798024,15.613713720000002,-10.43,-186.199997,-34.790001,1770467755.968219
-0.4069188,-0.14601204,13.942953000000001,-18.34,-178.850006,-25.9,1770467755.976233
1.04362704,1.00293516,11.5732494,-21.209999,-164.990005,-19.879999,1770467755.985777
1.17527724,1.2686292,10.15860816,-23.799999,-144.130005,-20.93,1770467755.992316
1.5582596400000002,1.72820808,8.61471036,-28.0,-121.589996,-27.51,1770467756.000151
3.83700492,4.98595212,6.82426764,-10.64,-123.620003,-1.89,1770467756.008174
3.96865512,5.1104214,6.4364979600000005,-7.77,-112.629997,3.71,1770467756.016157
3.91599504,5.65377768,5.17744332,-7.42,-99.470001,22.120001,1770467756.024277
3.8513667600000003,5.574787560000001,3.7149292800000002,-8.33,-87.010002,15.4,1770467756.032148
3.58327908,5.30669988,2.1375205200000003,-10.43,-70.839996,19.530001,1770467756.040152
3.171573,4.78728,0.64867644,-5.81,-53.549999,18.200001,1770467756.048153
2.7814096800000003,4.22956188,-0.6462827999999999,-3.43,-34.09,16.309999,1770467756.056152
2.5588011600000002,3.6718437600000002,-1.39309848,6.02,-9.8,12.04,1770467756.064153
2.7048132000000003,3.31279776,-1.2159691200000002,19.040001,16.73,0.7,1770467756.072181
3.0734337600000003,3.61679004,0.18909756000000003,29.190001,44.869999,-4.76,1770467756.080172
3.52822536,4.06440072,2.5276838400000003,36.959999,77.489998,-13.58,1770467756.088185
3.88487772,4.56945876,5.153506920000001,32.970001,115.290001,-21.42,1770467756.096128
3.97104876,4.8112164,7.26709104,25.690001,152.600006,-26.459999,1770467756.104143
3.78434484,4.41865944,8.40646368,15.33,185.919998,-31.99,1770467756.112143
3.21705216,3.82264308,9.337589640000001,4.2,210.770004,-30.309999,1770467756.120138
2.17581876,3.3630642,11.027499480000001,-4.48,227.710007,-23.309999,1770467756.128161
0.6031972800000001,2.69045136,13.31103204,-18.76,235.899994,-22.540001,1770467756.136144
-1.5391105200000001,0.9454878,15.441371640000002,-22.82,236.949997,-27.790001,1770467756.144142
-3.51146988,-1.15373448,17.162398800000002,-15.68,224.070007,-20.440001,1770467756.152144
-6.2354322,-2.81731428,19.17545004,8.68,193.619995,-3.36,1770467756.160144
-10.71632628,-6.702192000000001,19.836094680000002,10.15,180.25,-11.76,1770467756.168162
-11.2142034,-6.52506264,17.41133736,27.790001,136.360001,-2.59,1770467756.176281
-11.66420772,-6.498732600000001,14.950675440000001,34.580002,94.639999,-12.11,1770467756.184161
-11.59479216,-5.9505890400000006,12.753313920000002,35.209999,58.029999,-28.629999,1770467756.192147
-11.00595672,-5.108027760000001,10.87670016,27.65,28.49,-38.5,1770467756.200134
-9.890520480000001,-4.2128064,9.64876284,21.559999,6.44,-58.66,1770467756.208145
-8.7128496,-3.4181179200000003,8.985724560000001,20.299999,-7.07,-71.120003,1770467756.216143
-7.75778724,-2.4798110400000004,8.60992308,27.58,-17.57,-86.309998,1770467756.224147
-6.97267332,-1.3428320400000002,8.0905032,32.200001,-25.620001,-97.790001,1770467756.232191
-6.12053748,-0.06702192000000001,7.415496720000001,30.309999,-32.200001,-107.870003,1770467756.240306
-5.2588270800000005,1.2686292,6.783575760000001,26.459999,-39.27,-118.720001,1770467756.24814
-4.40190396,2.3984272800000004,6.070271040000001,16.1,-43.610001,-123.690002,1770467756.256491
-3.56173632,3.0830083200000002,5.457499200000001,9.87,-47.810001,-123.760002,1770467756.264178
-3.0279546,3.1643920800000003,5.09366592,3.64,-47.950001,-122.639999,1770467756.272201
-2.13991416,3.8465794800000004,4.55030964,5.53,-42.98,-116.480003,1770467756.280168
-1.7234208000000002,4.59339516,4.179295440000001,12.74,-44.029999,-101.43,1770467756.288147
-1.12979808,5.108027760000001,3.80110032,20.860001,-50.400002,-84.839996,1770467756.296133
-0.97421148,5.51015928,3.54019356,29.959999,-56.98,-67.830002,1770467756.304146
-0.88085952,5.471861039999999,3.76040844,38.290001,-54.669998,-64.400002,1770467756.312212
-0.48112164,5.368934520000001,4.57663968,45.009998,-40.529999,-54.950001,1770467756.32015
-0.05026644,5.167868760000001,6.0678774,55.509998,-14.7,-47.110001,1770467756.328327
0.29441772,4.74898176,8.01390672,59.639999,14.21,-42.279999,1770467756.336149
0.3949506,4.13860356,10.15142724,62.509998,41.439999,-36.610001,1770467756.34415
-0.0119682,2.9202408,12.46847076,61.32,62.09,-36.470001,1770467756.352145
-1.1489472,1.3165020000000003,14.962643640000001,66.639999,77.419998,-33.18,1770467756.36015
-3.25056312,0.24893856,17.27729352,80.010002,87.150002,-35.560001,1770467756.368153
-5.42877552,-0.14601204,19.26401472,85.75,87.43,-28.280001,1770467756.376244
-7.281452880000001,-0.67500648,20.408174640000002,86.519997,67.059998,-28.91,1770467756.384393
-10.019777040000001,-3.40614972,20.74328424,70.0,35.07,-38.57,1770467756.392255
-9.65594376,-3.57131088,19.608698880000002,60.759998,-12.11,-56.91,1770467756.400156
-9.45248436,-4.0045597200000005,18.68954112,52.849998,-62.02,-67.199997,1770467756.408152
-8.4854538,-4.01174064,17.875703520000002,44.66,-96.599998,-75.389999,1770467756.416152
-6.91522596,-3.6957801600000004,17.14564332,36.889999,-120.470001,-82.739998,1770467756.424148
-5.10324048,-3.1165192800000003,16.32223116,28.629999,-131.880005,-93.029999,1770467756.432151
-3.25295676,-2.5588011600000002,15.47248896,19.459999,-132.229996,-98.0,1770467756.440174
-1.81677276,-1.52953596,14.483915640000001,17.99,-126.139999,-101.360001,1770467756.448155
-0.9478814400000001,-0.24893856,13.531246920000001,13.51,-111.860001,-101.150002,1770467756.456193
-0.5050580400000001,1.34761932,12.370331519999999,9.45,-100.099998,-97.440002,1770467756.464155
-0.4667598,2.70960048,10.65409164,1.47,-89.879997,-95.760002,1770467756.472224
-0.7803266400000001,3.09497652,8.47109196,-8.54,-86.099998,-103.110001,1770467756.480164
-0.47154708,3.7460466,6.0559092,-10.01,-82.669998,-102.550003,1770467756.488206
2.30746896,6.00324912,3.6550882799999997,-7.63,-107.239998,-80.639999,1770467756.496136
0.7683584400000001,4.8710574,2.58991848,1.47,-120.120003,-63.77,1770467756.50416
0.9454878,4.4042976000000005,1.2925655999999999,-2.1,-130.619995,-56.349998,1770467756.512194
1.09389348,4.30137108,0.30399228000000006,0.0,-135.520004,-50.119999,1770467756.520198
1.36916208,3.98780424,-0.07420284,1.26,-133.419998,-43.959999,1770467756.528148
1.77368724,3.63115188,-0.12925656000000002,1.89,-126.559998,-45.990002,1770467756.536135
2.0585304,3.45162888,-0.1436184,5.32,-109.550003,-46.130001,1770467756.544176
2.24762796,2.95375176,-0.07899012000000001,14.84,-85.82,-48.369999,1770467756.552152
2.6880577199999998,2.5755566400000003,0.67740012,24.99,-54.389999,-54.880001,1770467756.560152
3.26492496,2.90348532,2.28831984,39.970001,-16.030001,-59.360001,1770467756.568148
4.06679436,3.5066826,5.146326,45.009998,19.74,-61.18,1770467756.576145
4.7824927200000005,4.47371316,8.260451640000001,40.529999,51.59,-59.009998,1770467756.584151
5.2181352,5.32824264,10.443451320000001,28.559999,83.650002,-55.439999,1770467756.592288
5.28515712,5.167868760000001,11.59000488,10.78,101.080002,-42.98,1770467756.60015
5.07930408,4.56945876,13.399596720000002,-11.34,103.949997,-23.66,1770467756.608149
4.66281072,3.38460696,15.331264200000001,-38.57,101.010002,-7.49,1770467756.616151
3.0830083200000002,0.9646369200000001,16.71239448,-44.52,108.150002,4.41,1770467756.62415
1.17527724,-1.69230348,17.21984616,-33.459999,124.040001,-3.01,1770467756.632157
-0.36622692,-2.96093268,18.13900392,-4.34,147.630005,4.48,1770467756.640233
-1.6635798000000002,-6.42931704,19.48183596,17.43,158.130005,29.68,1770467756.648175
-5.74234236,-6.75963936,19.4961978,21.0,165.830002,8.89,1770467756.656151
-7.4083158000000005,-6.400593360000001,17.361070920000003,24.08,152.949997,2.94,1770467756.664217
-8.820563400000001,-5.60829852,14.86689804,19.459999,137.059998,-9.17,1770467756.672157
-10.24238556,-4.8351528,12.913687800000002,10.78,114.379997,-16.52,1770467756.680161
-11.07297864,-3.84418584,11.33149176,4.9,83.510002,-27.02,1770467756.688186
-11.28840624,-2.6784831600000003,9.80674308,-2.38,51.310001,-40.25,1770467756.696133
-11.04186132,-1.4577267600000001,8.42800644,-8.12,17.57,-46.34,1770467756.70417
-10.2088746,-0.5864418,7.2575164800000005,-11.55,-11.06,-63.98,1770467756.712252
-9.03359736,0.20585304000000001,6.15404844,-8.54,-36.049999,-74.410004,1770467756.720181
-7.80805368,0.86410404,5.045793120000001,-4.2,-52.009998,-84.07,1770467756.728153
-6.5657545200000005,1.4122476000000002,4.1338162800000005,-0.14,-63.560001,-92.330002,1770467756.736195
-5.34021084,2.0106576,3.2673186000000003,6.86,-74.410004,-97.089996,1770467756.744156
-4.394723040000001,2.64736584,2.333799,13.51,-86.800003,-101.220001,1770467756.752156
-3.03274188,2.33619264,1.8311346,10.57,-106.68,-105.139999,1770467756.760232
-2.85321888,3.71971656,1.11543624,14.77,-121.449997,-117.18,1770467756.768152
-1.39549212,4.61254428,0.60559092,19.459999,-132.300003,-96.599998,1770467756.776148
1.00772244,5.651384040000001,0.85931676,27.09,-159.110001,-60.48,1770467756.784146
0.8138376,5.737555080000001,1.86464556,35.91,-176.960007,-28.98,1770467756.792279
1.4720886,5.964950880000001,3.31997868,36.959999,-174.229996,-10.43,1770467756.80016
2.22129792,6.6854365200000005,5.18701788,37.169998,-154.979996,-0.77,1770467756.808152
3.25774404,7.22161188,7.55432784,35.419998,-122.010002,3.01,1770467756.816143
4.16972088,7.779330000000001,9.873765,30.870001,-77.769997,4.48,1770467756.824154
4.64844888,7.5639024,11.61394128,24.01,-29.68,3.43,1770467756.832173
4.3205202,6.692617440000001,13.349330280000002,11.9,25.76,4.2,1770467756.840182
2.9752945200000003,5.421594600000001,15.86743956,3.29,82.599998,-0.77,1770467756.848151
0.42606792,3.7508338800000005,18.61294464,3.99,143.080002,-14.91,1770467756.85616
-2.7694414800000002,0.64867644,20.87972172,16.450001,200.619995,-27.16,1770467756.864251
-4.667598,-1.1609154000000002,21.530791800000003,37.869999,207.899994,-15.68,1770467756.872181
-6.52984992,-1.855071,21.889837800000002,44.169998,154.839996,-4.69,1770467756.880198
-11.733623280000002,-4.83036552,21.79887948,25.9,100.309998,-16.17,1770467756.888207
-11.118457800000002,-4.2367428,19.03422528,8.33,31.15,-25.129999,1770467756.896189
-11.101702320000001,-4.50722412,16.24802832,-3.57,-31.92,-28.84,1770467756.90424
-9.62482644,-4.40908488,13.990825800000001,-15.19,-84.980003,-35.279999,1770467756.912163
-7.72427628,-4.15057176,12.29612868,-22.75,-119.209999,-41.369999,1770467756.920155
-5.71840596,-3.5330126400000004,10.910211120000001,-21.98,-135.660004,-43.68,1770467756.928151
-3.7077483600000005,-2.89869804,9.67748652,-22.75,-141.259995,-45.360001,1770467756.936149
-2.1423078,-2.03220036,8.32029264,-14.28,-141.330002,-40.880001,1770467756.944189
-0.78750756,-0.89282772,7.054057080000001,-12.53,-137.759995,-35.419998,1770467756.952149
0.31356684,0.019149120000000002,5.866811640000001,-11.97,-134.679993,-27.719999,1770467756.960156
0.6654319200000001,0.33989688,4.73701356,-15.05,-127.82,-19.040001,1770467756.968152
2.5492266,-1.256661,3.6024282000000003,-20.09,-126.699997,-14.35,1770467756.976753
4.53116052,1.51038684,1.63485612,-13.72,-127.260002,2.8,1770467756.984275
2.5372584,1.14415992,0.7707520800000001,6.23,-117.32,20.860001,1770467756.992178
2.3984272800000004,1.2614482800000002,0.10771380000000001,14.77,-105.559998,29.610001,1770467757.000153
2.17581876,1.39549212,-0.23457672000000002,26.67,-87.150002,36.610001,1770467757.008386
1.93645476,1.6683670800000001,-0.3710142,33.32,-60.34,37.169998,1770467757.016149
1.7880490800000002,1.9747530000000002,0.01436184,38.639999,-30.379999,42.0,1770467757.024217
1.79762364,2.2141170000000003,1.14655356,35.77,2.52,35.630001,1770467757.03214
2.07289224,2.99923092,2.79098424,28.98,33.459999,29.75,1770467757.040152
2.49417288,3.25295676,5.0984532,19.32,63.84,23.73,1770467757.048156
2.68327044,3.77955756,7.477731360000001,7.56,94.709999,10.08,1770467757.056157
2.68327044,4.06679436,9.780413040000001,5.46,129.570007,-1.68,1770467757.064195
2.5228965600000004,4.0045597200000005,12.08309472,8.54,158.059998,-18.129999,1770467757.07216
1.6468243200000001,3.6742374,14.144018760000002,10.01,171.5,-24.360001,1770467757.080228
0.22978944,3.7987066800000004,16.358135760000003,0.84,172.830002,-21.49,1770467757.088222
-1.42182216,2.66412132,19.955776680000003,-12.53,165.270004,-18.059999,1770467757.096123
-3.6287582400000002,0.41409972,23.11298784,-15.54,154.490005,-11.9,1770467757.104149
-5.30430624,-1.0292652,25.60716072,-2.52,122.150002,-3.15,1770467757.112155
-7.44661404,-1.6037388,25.652639880000002,7.98,75.529999,5.04,1770467757.120179
-9.72296568,-2.2404470400000003,22.68452628,-0.91,44.73,7.28,1770467757.128142
-9.28971684,-1.96757208,18.22996224,-23.309999,16.309999,-14.91,1770467757.136139
-8.463911040000001,-2.2835325600000003,14.5054584,-38.639999,2.73,-16.1,1770467757.144146
-7.64528616,-2.7766224000000004,11.554100280000002,-41.650002,0.91,-29.049999,1770467757.152148
-7.113898080000001,-2.90109168,9.52429356,-40.32,4.97,-34.650002,1770467757.160176
-6.86256588,-2.3002880400000003,7.961246640000001,-28.91,10.08,-35.419998,1770467757.168158
-6.8027248799999995,-1.4002794,6.8577786000000005,-20.860001,15.89,-41.16,1770467757.17614
-6.73570296,-0.32314139999999997,6.21388944,-14.56,17.08,-39.830002,1770467757.18415
-6.692617440000001,0.5026644,5.555638440000001,-7.98,14.98,-48.580002,1770467757.192191
-6.60165912,0.8329867200000001,4.7154708,-5.81,6.09,-49.560001,1770467757.200148
-6.2114958,0.8617104000000001,3.7221102,0.91,-6.58,-54.529999,1770467757.208141
-5.66813952,0.7970821200000001,2.6880577199999998,4.9,-22.889999,-54.110001,1770467757.21614
-5.021856720000001,0.7539966,1.82156004,12.46,-42.560001,-52.849998,1770467757.224143
-4.2128064,0.89282772,1.1585217600000002,16.59,-62.299999,-49.490002,1770467757.232146
-3.2840740800000003,1.40746032,0.85692312,20.860001,-85.120003,-44.099998,1770467757.240177
-2.4510873600000003,1.8909756,0.94309416,18.129999,-105.349998,-36.610001,1770467757.248267
-1.61091972,2.31943716,1.3093210800000001,13.23,-123.970001,-24.57,1770467757.256166
-1.01250972,2.3816718,1.91012472,4.34,-138.740005,-24.219999,1770467757.26417
-0.3710142,2.32661808,2.4415128,-2.31,-138.949997,-17.290001,1770467757.272146
0.59601636,2.69523864,3.0877956,0.42,-138.880005,-10.22,1770467757.280177
1.8766137600000001,3.3630642,4.480894080000001,6.65,-136.289993,14.14,1770467757.28816
2.79816516,4.05003888,6.764426640000001,6.79,-116.900002,23.1,1770467757.296128
3.5928536400000004,4.947653880000001,9.49317624,2.73,-87.360001,23.59,1770467757.304149
3.97583604,5.64180948,11.51580204,-0.91,-45.779999,20.299999,1770467757.312506
3.6359391600000004,5.550851160000001,12.86820864,-6.02,-0.49,22.469999,1770467757.320258
2.7407178,4.914142920000001,15.190039440000001,-11.76,48.16,22.120001,1770467757.32813
0.93112596,3.4899271200000004,18.3592188,-25.549999,104.440002,16.52,1770467757.336152
-0.30399228000000006,0.43564248000000005,21.20286312,-28.280001,150.5,27.51,1770467757.344151
-1.9627848,-2.5181092800000004,23.261393520000002,-3.85,176.050003,38.43,1770467757.352214
-4.12184808,-2.85082524,24.37682976,18.129999,158.690002,50.259998,1770467757.360147
-7.12825992,-3.43726704,23.895708120000002,3.64,135.800003,48.720001,1770467757.368135
-9.193971240000002,-4.03088976,19.654178039999998,-17.99,98.07,13.86,1770467757.376206
-9.871371360000001,-4.02370884,15.644831040000001,-35.560001,54.950001,-2.31,1770467757.384154
-9.395037,-3.9854106000000002,12.571397280000001,-49.77,10.5,-15.26,1770467757.392169
-8.25327072,-3.8058876000000006,10.295045640000001,-61.880001,-26.110001,-22.540001,1770467757.400147
-6.692617440000001,-3.3941815200000005,8.47109196,-58.099998,-52.990002,-24.780001,1770467757.408135
-5.2253161200000005,-2.4726301200000003,7.0492698,-53.130001,-73.709999,-30.17,1770467757.416159
-3.82503672,-1.47687588,6.0319728,-43.540001,-88.129997,-20.299999,1770467757.424162
-2.45826828,-0.6821874000000001,5.141538720000001,-33.32,-99.540001,-18.620001,1770467757.432268
-1.2446928,-0.28005588000000003,4.308552,-27.09,-108.919998,-4.27,1770467757.440147
-0.25851312000000004,-0.06941556,3.26013768,-17.43,-116.900002,1.12,1770467757.448177
0.41649336000000003,0.22500216000000003,2.1806060400000002,-14.56,-119.980003,9.8,1770467757.456152
0.46915344000000003,0.31356684,1.25426736,-2.24,-115.43,17.219999,1770467757.464273
1.35958752,0.016755480000000003,0.29681136,3.36,-112.209999,12.25,1770467757.472149
1.4840568,1.1824581600000001,-0.7851139200000001,12.11,-109.970001,16.940001,1770467757.480163
1.45054584,1.1489472,-0.85213584,28.629999,-97.440002,31.780001,1770467757.488428
1.47687588,1.4002794,-0.1436184,33.529999,-74.059998,34.439999,1770467757.496149
1.69230348,1.7904427200000002,1.09389348,37.380001,-43.119999,34.720001,1770467757.5042
2.1782124,1.9292738400000002,2.7694414800000002,36.610001,-6.72,33.810001,1770467757.512165
2.7718351200000004,2.0345940000000002,4.5886078800000005,34.23,27.860001,27.16,1770467757.520155
3.22183944,2.08486044,6.774001200000001,33.950001,68.949997,24.5,1770467757.528178
3.3510960000000005,2.80534608,9.19875852,34.650002,106.959999,13.37,1770467757.536133
3.2888613600000003,2.79816516,11.8604862,40.459999,140.559998,6.51,1770467757.54413
2.61146124,2.53486476,14.371414560000002,41.439999,165.410004,0.42,1770467757.552179
1.23511824,2.3816718,16.7435118,38.639999,181.509995,0.49,1770467757.560183
-0.31356684,2.1423078,21.195682200000004,30.870001,185.149994,5.32,1770467757.568176
-1.91012472,0.18670392000000002,25.880035680000002,17.43,172.339996,8.89,1770467757.576158
-3.9064204800000004,-2.0226258,27.12712212,26.32,140.279999,24.01,1770467757.584154
-5.96973816,-2.25480888,25.590405240000003,22.540001,89.25,22.469999,1770467757.592272
-8.72721144,-3.4229052,23.129743320000003,-4.55,63.630001,26.25,1770467757.60017
-8.21736612,-3.7316847600000003,18.3592188,-26.67,47.040001,2.73,1770467757.608187
-8.00433216,-3.9590805600000003,15.338445120000001,-40.669998,42.279999,-6.65,1770467757.616148
-7.60220064,-4.009347,12.82272948,-41.369999,45.990002,-18.48,1770467757.624154
-7.539966,-3.77955756,10.64930436,-34.790001,52.290001,-25.9,1770467757.632178
-7.56868968,-2.87715528,8.83731888,-28.35,57.959999,-34.369999,1770467757.640193
-7.72666992,-1.67794164,7.35326208,-19.879999,58.029999,-42.630001,1770467757.648147
-7.72666992,-0.53378172,6.1755912,-20.02,51.310001,-46.689999,1770467757.656146
-7.606987920000001,0.33989688,5.08169772,-15.12,38.360001,-50.470001,1770467757.664155
-7.3006020000000005,0.9119768400000001,4.11945444,-10.43,18.76,-54.880001,1770467757.672136
-6.6854365200000005,1.2375118800000002,3.28646772,-4.76,-2.59,-60.130001,1770467757.680182
-5.974525440000001,1.32607656,2.513322,3.43,-21.91,-57.889999,1770467757.688156
-5.1941988,1.37155572,1.7234208000000002,10.78,-40.529999,-58.73,1770467757.69616
-4.40190396,1.496025,0.80665668,14.42,-59.779999,-55.09,1770467757.704159
-3.45641616,1.8191664,0.11728836000000001,17.01,-78.68,-46.900002,1770467757.712251
-2.49417288,2.06571132,0.06941556,10.78,-98.489998,-35.91,1770467757.720149
-1.61331336,2.1303396,0.40213152,4.9,-116.690002,-27.16,1770467757.728153
-0.9478814400000001,2.1973615200000003,1.04362704,-1.89,-128.240005,-21.35,1770467757.736151
-0.5050580400000001,1.9771466400000002,1.6851225600000002,-3.57,-126.559998,-15.68,1770467757.744153
1.7712936000000001,2.79816516,1.8454964400000002,6.09,-121.519997,0.91,1770467757.75226
2.1183714,2.92981536,3.82503672,20.23,-114.449997,14.14,1770467757.760247
2.70960048,3.5330126400000004,6.2306449200000005,38.360001,-87.57,25.059999,1770467757.768164
3.21705216,4.53834144,8.97854364,41.299999,-48.580002,23.030001,1770467757.776137
3.2721058800000002,6.04633464,11.40330096,39.130001,-1.68,25.620001,1770467757.784135
2.41997004,6.977460600000001,12.257830440000001,21.91,39.41,18.76,1770467757.79232
1.0555952400000002,7.1043235199999994,14.50306476,2.66,73.849998,17.85,1770467757.800145
-0.9263386800000001,5.59872396,18.431028,-13.86,119.839996,11.13,1770467757.80819
-2.90109168,2.08007316,21.602601000000003,-12.6,164.5,12.25,1770467757.816166
-4.8902065200000004,-1.1369790000000002,23.098626000000003,18.129999,174.929993,32.34,1770467757.824158
-6.290485920000001,-1.4792695200000001,23.215914360000003,30.24,136.919998,51.310001,1770467757.83216
-11.511014760000002,-4.53834144,23.23506348,9.1,107.379997,45.709999,1770467757.840171
-11.12803236,-3.99498516,19.654178039999998,-6.3,61.950001,20.58,1770467757.848229
-11.230958880000001,-4.90935564,16.190580960000002,-26.530001,13.72,11.9,1770467757.856158
-10.35009936,-5.443137360000001,13.205711879999999,-41.09,-32.060001,1.61,1770467757.864148
-8.88997896,-5.048186760000001,10.84797648,-50.470001,-69.230003,-13.72,1770467757.872146
-7.08038712,-4.81361004,9.04317192,-54.110001,-94.57,-20.719999,1770467757.880145
-5.165475120000001,-4.071581640000001,7.53517872,-48.580002,-111.650002,-26.950001,1770467757.888205
-3.4396606800000002,-3.0638592,6.4891580399999995,-43.259998,-121.800003,-27.370001,1770467757.896154
-2.0465622,-1.99150848,5.59872396,-29.75,-126.349998,-19.530001,1770467757.904158
-0.78750756,-1.2686292,4.8949938,-22.120001,-130.199997,-13.86,1770467757.912135
0.31835412,-0.71091108,3.98301696,-17.219999,-133.979996,-5.53,1770467757.920171
0.80665668,-0.24654492000000003,2.9896563600000006,-9.1,-134.190002,-1.68,1770467757.928152
1.21118184,-0.63670824,1.9292738400000002,-6.37,-127.889999,3.64,1770467757.936155
2.0082639600000003,0.28963044000000004,0.75160296,0.77,-126.419998,6.44,1770467757.944168
1.88379468,0.95027508,-0.35904600000000003,11.34,-119.980003,5.95,1770467757.952205
1.96996572,1.2877783200000001,-0.9000086400000001,23.030001,-107.239998,21.35,1770467757.960156
1.99390212,1.40506668,-0.54574992,31.92,-85.75,25.059999,1770467757.968149
2.36012904,1.6444306800000001,0.5601117600000001,35.349998,-55.02,24.780001,1770467757.976493
3.0854019600000004,1.6037388,2.4678428400000003,39.549999,-20.790001,20.02,1770467757.984874
4.02370884,1.63485612,5.18701788,42.98,14.84,18.34,1770467757.992203
4.808822760000001,2.01544488,8.44236828,43.68,57.400002,8.19,1770467758.000164
5.0529740400000005,2.7598669200000003,11.345853600000002,46.41,105.209999,-1.33,1770467758.00833
4.96919664,3.1691793600000002,13.23443556,47.880001,147.839996,-16.799999,1770467758.016178
4.15057176,3.0973701600000005,14.6251404,47.669998,184.380005,-20.23,1770467758.024155
2.6210358,3.2290203600000003,16.145101800000003,43.610001,205.240005,-18.41,1770467758.032138
1.5199614000000001,2.752686,20.755252440000003,30.66,212.800003,-9.52,1770467758.040144
-1.0053288,0.7899012,25.62152256,26.18,203.490005,4.2,1770467758.048174
-4.1769018,-0.3829824,26.234294400000003,26.32,173.740005,12.18,1770467758.056249
-6.63277644,-0.4906962,25.2050292,19.110001,126.419998,25.48,1770467758.064158
-8.23890888,-0.22021488,21.40632252,-4.34,83.93,22.26,1770467758.072227
-9.71339112,-2.31464988,17.86373532,-32.34,69.720001,11.06,1770467758.080158
-8.81098884,-2.6210358,14.45279832,-40.459999,62.509998,-6.02,1770467758.088223
-8.562050280000001,-3.0255609600000004,11.549313000000001,-41.860001,63.91,-21.42,1770467758.096163
-8.468698320000001,-2.9106662400000003,9.02162916,-36.889999,70.489998,-24.92,1770467758.104158
-8.648221320000001,-2.40800184,6.991822440000001,-24.639999,72.940002,-37.380001,1770467758.112147
-8.86604256,-1.43857764,5.45989284,-17.360001,70.769997,-45.639999,1770467758.120149
-8.6889132,-0.56489904,4.751375400000001,-7.56,62.16,-54.740002,1770467758.128143
-8.2939626,-0.0359046,4.43302128,0.98,44.66,-61.950001,1770467758.136141
-7.62613704,0.22500216000000003,3.93993144,7.35,21.07,-66.220001,1770467758.144208
-6.74767116,0.40931244,3.2553504,15.33,-7.0,-69.230003,1770467758.152147
-5.7088314,0.6008036400000001,2.5276838400000003,17.99,-32.060001,-68.879997,1770467758.160144
-4.607757,0.7803266400000001,1.80959184,21.629999,-58.310001,-63.700001,1770467758.168143
-3.63115188,1.06756344,1.1250108,20.58,-83.370003,-58.099998,1770467758.176143
-2.7766224000000004,1.3883112000000002,0.79947576,19.879999,-103.669998,-48.439999,1770467758.184142
-1.7306017200000001,1.73299536,0.777933,12.74,-122.779999,-43.119999,1770467758.19233
-0.85213584,2.0202321600000004,1.06995708,4.76,-137.759995,-36.82,1770467758.200148
-0.33032232,1.8909756,1.6516116,2.38,-146.300003,-29.26,1770467758.208148
-0.24893856,1.5582596400000002,2.2739580000000004,0.91,-136.220001,-26.25,1770467758.21616
2.513322,1.7760808799999999,2.8077397200000003,10.85,-118.93,7.0,1770467758.224282
1.8670392,2.05134948,5.565213000000001,24.780001,-94.010002,17.219999,1770467758.232142
2.1782124,2.84364432,8.65779588,30.450001,-59.360001,22.68,1770467758.240144
2.26677708,3.82024944,12.23628768,29.120001,-10.71,20.65,1770467758.248146
1.5941642400000002,4.5239796000000005,13.794547320000001,19.67,37.380001,31.219999,1770467758.256146
0.00718092,4.1673272400000005,15.32408328,15.89,79.589996,30.73,1770467758.264192
-2.8867298400000005,2.573163,17.93793816,19.74,120.260002,29.33,1770467758.272296
-5.433562800000001,0.9359132400000001,19.76428548,28.42,148.259995,31.219999,1770467758.280134
-8.198217,0.37819512000000005,20.769614280000003,31.57,156.800003,35.700001,1770467758.288125
-10.1490336,-1.2327246,21.238767720000002,16.309999,139.089996,27.51,1770467758.296165
-11.690537760000002,-2.4726301200000003,21.30100236,3.01,95.970001,10.71,1770467758.30417
-12.564216360000001,-3.2074776,19.5321024,-16.59,41.09,-5.04,1770467758.312266
-12.09266928,-3.77955756,16.875162,-31.43,-16.870001,-20.23,1770467758.320163
-10.89345564,-3.7029610800000006,13.87353744,-41.93,-65.029999,-25.9,1770467758.328155
-9.165247560000001,-3.3941815200000005,11.4056946,-52.779999,-103.879997,-32.060001,1770467758.336152
-6.934375080000001,-2.86518708,9.45727164,-56.209999,-128.869995,-35.139999,1770467758.344141
-4.86627012,-1.91012472,7.68597804,-49.630001,-146.789993,-31.780001,1770467758.35217
-3.10933836,-0.73245384,6.077451959999999,-43.82,-157.779999,-27.370001,1770467758.3602
-1.46490768,0.14840568,4.67238528,-31.99,-165.410004,-18.76,1770467758.368154
-0.15079932000000001,0.33032232,3.61918368,-21.98,-171.009995,-10.01,1770467758.376154
0.48830256000000005,0.33271596000000003,2.56837572,-14.91,-170.869995,-5.18,1770467758.384152
0.93112596,0.00718092,1.4601204,-13.37,-166.460007,-7.14,1770467758.392221
3.13088112,2.11358412,-0.24415128000000003,0.49,-171.360001,21.139999,1770467758.400157
2.49896016,1.27341648,-0.5361753600000001,17.99,-163.100006,26.950001,1770467758.408155
2.47023648,1.2399055200000002,-0.87607224,22.4,-146.860001,28.629999,1770467758.416282
2.4463000800000003,1.4457585600000002,-0.8377740000000001,31.15,-120.190002,33.880001,1770467758.424146
2.5157156400000003,1.6635798000000002,-0.26808768000000005,35.91,-88.970001,28.42,1770467758.432157
2.8795489200000004,1.9388484000000001,1.00293516,35.419998,-49.209999,31.01,1770467758.440192
3.40614972,2.0585304,2.68327044,40.040001,-3.92,27.09,1770467758.448158
4.01892156,2.01544488,4.837546440000001,41.09,38.919998,25.969999,1770467758.456186
4.6197252,2.33140536,7.295814720000001,45.990002,81.199997,26.040001,1770467758.464162
4.78009908,3.0303482400000004,9.883339560000001,50.68,124.389999,11.27,1770467758.472244
4.75855632,3.1476366,12.59533368,49.0,159.600006,5.18,1770467758.480157
4.10030532,2.60428032,14.859717120000001,52.290001,184.589996,-2.1,1770467758.488239
2.5157156400000003,2.4343318800000002,17.31080448,42.0,201.880005,-1.54,1770467758.496166
1.11543624,1.67076072,21.87068868,26.18,206.149994,6.16,1770467758.504278
-1.1992136400000002,-0.6702192000000001,26.066739600000002,12.67,199.149994,3.71,1770467758.512226
-3.8058876000000006,-2.45587464,27.407178000000002,21.35,170.520004,16.59,1770467758.520158
-6.52506264,-2.31943716,26.614883159999998,17.01,117.949997,19.18,1770467758.528151
-10.721113560000001,-4.32530748,23.840654400000002,-13.3,88.059998,12.25,1770467758.536136
-9.16046028,-3.410937,18.9456606,-34.23,59.220001,-10.78,1770467758.544154
-8.89715988,-3.86094132,15.319296000000001,-45.639999,49.490002,-18.620001,1770467758.55216
-8.420825520000001,-4.01892156,12.46368348,-46.48,47.950001,-29.82,1770467758.560154
-8.119226880000001,-3.66945012,10.251960120000001,-38.919998,49.419998,-35.139999,1770467758.56815
-7.9492784400000005,-2.71199412,8.2819944,-31.219999,51.799999,-39.130001,1770467758.576149
-8.02826856,-1.40267304,6.81948036,-23.66,51.099998,-43.119999,1770467758.584177
-8.0905032,-0.12207564000000001,5.69207592,-22.889999,40.740002,-50.610001,1770467758.592459
-7.822415520000001,1.3907048400000002,4.64126796,-19.459999,24.290001,-62.299999,1770467758.600156
-7.1162917199999995,1.27341648,3.9590805600000003,-9.03,4.55,-66.43,1770467758.60814
-6.3383587200000004,1.5223550399999999,2.86518708,-4.34,-14.49,-71.470001,1770467758.616193
-5.677714079999999,1.4673013200000002,1.7760808799999999,5.32,-30.24,-66.779999,1770467758.624164
-4.75855632,1.6635798000000002,0.99096696,10.78,-48.09,-67.339996,1770467758.632151
-3.82024944,1.9412420400000001,0.299205,10.57,-66.290001,-62.02,1770467758.640153
-2.88912348,2.29071348,0.08617104,9.52,-89.25,-52.849998,1770467758.648152
-2.12555232,2.53486476,0.28244952,-0.35,-106.75,-48.369999,1770467758.656228
-1.29495924,2.86279344,0.6654319200000001,-10.78,-119.699997,-40.529999,1770467758.664156
-0.41170608000000003,2.65215312,1.31410836,-10.57,-123.830002,-33.740002,1770467758.672149
1.93406112,3.92796324,1.98911484,-8.26,-146.440002,-0.77,1770467758.68015
1.735389,3.1955093999999997,3.5258317200000002,5.25,-133.0,3.92,1770467758.688175
2.45587464,4.081156200000001,5.34260448,23.450001,-100.800003,30.73,1770467758.696159
2.81492064,3.9207823200000003,7.5639024,43.68,-56.139999,19.879999,1770467758.70425
3.4540225200000005,5.507765640000001,9.8258922,49.77,-13.37,13.93,1770467758.712153
2.2978944,6.76921392,10.68520896,33.669998,31.15,22.68,1770467758.720152
1.49841864,7.3987412400000006,12.95437968,17.5,69.580002,17.5,1770467758.728157
0.27766224,6.087026520000001,16.65494712,-6.02,109.059998,13.72,1770467758.736147
-2.24284068,3.36067056,20.353120920000002,-14.91,164.570007,5.18,1770467758.744166
-3.96865512,-0.66303828,22.92389028,7.56,181.369995,21.49,1770467758.752156
-5.672926800000001,-1.4792695200000001,22.682132640000003,16.799999,156.800003,51.52,1770467758.760152
-9.7181784,-1.40267304,22.91192208,16.24,117.529999,65.309998,1770467758.76817
-11.28361896,-3.76758936,21.11669208,-17.01,82.040001,17.01,1770467758.77615
-11.83894344,-4.31094564,17.54298756,-36.68,32.549999,11.69,1770467758.784138
-11.06101044,-5.17744332,14.51024568,-48.23,-11.34,11.13,1770467758.792154
-9.97429788,-5.543670240000001,11.50383384,-68.110001,-50.68,-14.49,1770467758.800177
-8.248483440000001,-5.349785400000001,9.41179248,-71.400002,-79.519997,-13.58,1770467758.808161
-6.42931704,-4.727439,7.5926260800000005,-70.419998,-100.169998,-30.450001,1770467758.816169
-4.796854560000001,-3.49232076,6.280911360000001,-61.740002,-112.349998,-18.620001,1770467758.824199
-3.2290203600000003,-2.5109283600000003,5.47904196,-49.98,-121.519997,-26.67,1770467758.83222
-1.8574646400000001,-1.77368724,4.751375400000001,-41.790001,-126.980003,-17.360001,1770467758.840147
-0.6127718400000001,-1.15373448,3.9016332000000005,-26.530001,-131.880005,-9.24,1770467758.848151
0.26808768000000005,-0.54096264,2.9393899200000004,-18.200001,-137.550003,-2.59,1770467758.85615
0.82819944,-0.02154276,1.91012472,-9.24,-139.860001,6.16,1770467758.864195
0.84734856,0.24415128000000003,0.78272028,-0.56,-135.100006,2.94,1770467758.872229
1.7904427200000002,-0.01436184,-0.32314139999999997,0.21,-132.649994,6.93,1770467758.880146
1.8790073999999999,0.9335196,-1.5127804800000002,14.98,-127.68,4.69,1770467758.88815
1.9723593600000002,0.8736786000000001,-1.58698332,24.99,-111.860001,15.61,1770467758.896162
2.25480888,1.0651698,-0.6199527600000001,36.400002,-86.519997,18.549999,1770467758.90419
2.9274217200000003,0.8832531600000001,1.3907048400000002,42.560001,-52.220001,16.870001,1770467758.912165
3.81546216,0.7180920000000001,4.394723040000001,44.73,-12.32,13.58,1770467758.920149
4.82079096,1.2159691200000002,7.827202800000001,47.669998,31.639999,7.28,1770467758.928152
5.23489068,1.9173056400000001,10.84079556,47.32,80.709999,-0.84,1770467758.936141
5.2540398,2.0561367600000002,13.02618888,47.950001,130.130005,-11.41,1770467758.944254
4.772918160000001,1.72820808,14.50067112,48.299999,168.630005,-19.6,1770467758.952151
4.00695336,1.95799752,15.123017520000001,47.740002,192.009995,-5.6,1770467758.960153
2.24284068,1.9268802000000003,18.644061960000002,44.869999,205.449997,2.52,1770467758.968152
0.70851744,0.9287323200000001,25.10210268,35.279999,202.509995,8.89,1770467758.976334
-2.35294812,-0.35186508,26.586159480000003,28.0,177.940002,16.66,1770467758.984957
-5.057761320000001,-0.45718524,25.20981648,11.41,139.300003,20.299999,1770467758.992175
-6.61123368,-0.67261284,22.198617360000004,-12.74,101.080002,28.77,1770467759.000168
-7.98039576,-1.60613244,18.50523084,-34.299999,85.959999,30.870001,1770467759.008351
-8.18385516,-2.6689086000000004,15.47248896,-52.919998,78.190002,10.43,1770467759.016162
-8.2460898,-3.0351355200000003,12.332033280000001,-49.0,79.029999,-3.36,1770467759.024157
-8.24369616,-2.8723680000000003,9.715784760000002,-44.66,81.339996,-14.0,1770467759.032538
-8.408857320000001,-2.18539332,7.6572543600000005,-35.0,80.709999,-24.57,1770467759.040239
-8.782265160000001,-1.12740444,5.73994872,-26.32,71.120003,-43.330002,1770467759.048158
-8.542901160000001,-0.15319296000000002,4.72504536,-22.26,54.529999,-52.779999,1770467759.056159
-8.22694068,0.0047872800000000005,4.12184808,-11.13,38.43,-57.119999,1770467759.06418
-7.26709104,0.13643748,3.4827462000000002,7.35,20.65,-61.25,1770467759.072175
-6.383837880000001,0.55532448,2.7359305199999997,17.85,1.19,-64.050003,1770467759.080244
-5.39047728,0.9095832,2.19975516,25.620001,-18.83,-64.050003,1770467759.088147
-4.428234000000001,1.35001296,1.63485612,27.790001,-40.110001,-56.349998,1770467759.096193
-3.5377999200000003,1.93645476,1.03165884,27.93,-63.209999,-49.630001,1770467759.104213
-2.573163,2.36730996,0.69654924,20.23,-86.800003,-41.93,1770467759.112154
-1.8000172800000003,2.53486476,0.85931676,7.84,-108.43,-31.5,1770467759.120144
-1.16570268,2.50374744,1.1728836,0.35,-127.260002,-27.719999,1770467759.128145
-0.45718524,2.3218308000000003,1.6492179599999999,-7.56,-132.789993,-21.07,1770467759.136141
0.33271596000000003,2.45826828,2.1423078,-0.07,-129.149994,-7.42,1770467759.144199
1.3428320400000002,2.4726301200000003,3.4300861200000003,14.14,-124.599998,19.389999,1770467759.152149
1.9771466400000002,1.8143791200000001,5.783034240000001,24.219999,-71.540001,70.839996,1770467759.160147
1.79762364,3.2673186000000003,8.20061064,35.209999,-14.56,20.02,1770467759.168143
1.8119854800000001,4.12663536,11.73122964,34.09,37.169998,55.509998,1770467759.17614
1.06277616,4.83994008,14.10093324,20.299999,87.5,15.47,1770467759.184142
-0.94309416,4.6747789200000005,16.73633088,9.31,125.650002,49.490002,1770467759.192163
-4.30615836,3.06864648,19.99646856,5.11,157.080002,20.440001,1770467759.200222
-7.73863812,1.496025,21.32254512,21.42,167.929993,31.92,1770467759.208156
-10.16339544,0.30877956,21.873082319999998,21.77,152.529999,43.049999,1770467759.216146
-13.05251892,-2.7598669200000003,22.05260532,8.33,120.959999,25.76,1770467759.224148
-13.69880172,-2.96332632,20.89168992,-2.24,68.599998,24.219999,1770467759.232206
-13.83763284,-3.4229052,18.158153040000002,-21.629999,3.08,1.89,1770467759.24014
-12.971135160000001,-4.3612120800000005,15.381530640000001,-35.91,-53.41,-3.92,1770467759.248142
-10.79292276,-4.1888700000000005,12.686292,-46.27,-98.139999,-11.97,1770467759.256137
-8.40646368,-4.44738312,10.57270788,-54.25,-127.540001,-18.129999,1770467759.264181
-6.01761096,-3.6862056,8.40646368,-55.23,-145.880005,-21.0,1770467759.272156
-3.87051588,-2.85800616,6.81469308,-48.650002,-157.360001,-23.450001,1770467759.280155
-2.1111904800000003,-1.9268802000000003,5.507765640000001,-42.490002,-163.800003,-18.83,1770467759.288126
-0.48830256000000005,-0.97181784,4.36599936,-31.99,-168.419998,-12.46,1770467759.296187
0.57207996,-0.49787712,3.36785148,-27.23,-168.630005,-2.31,1770467759.304278
0.8377740000000001,-0.28963044000000004,2.2260852000000004,-22.120001,-161.770004,1.96,1770467759.312152
2.59949304,-0.14840568,1.1130426000000002,-21.07,-164.289993,11.83,1770467759.32016
3.6838119600000003,1.3069274400000002,-0.31835412,1.68,-161.630005,27.860001,1770467759.328154
2.7287496000000004,0.69176196,-0.67979376,12.53,-148.75,33.810001,1770467759.336168
2.55162024,0.8258058,-1.256661,22.540001,-128.100006,39.900002,1770467759.344154
2.4798110400000004,1.0412334,-1.3643748000000002,29.889999,-100.660004,32.48,1770467759.352154
2.5827375600000004,1.5462914399999999,-0.6462827999999999,32.34,-62.650002,29.4,1770467759.360142
2.96332632,1.9962957600000002,1.13219172,33.669998,-21.35,23.24,1770467759.368132
3.5018953200000005,2.28113892,3.2721058800000002,33.459999,23.450001,20.23,1770467759.376144
4.1649336,2.3697036000000002,5.5388829600000005,34.439999,69.510002,11.06,1770467759.384191
4.440202200000001,2.5109283600000003,8.167099680000002,39.970001,112.139999,-1.96,1770467759.392178
4.41865944,2.90348532,10.678028040000001,44.66,155.259995,1.05,1770467759.400165
3.9566869200000006,2.9896563600000006,13.320606600000001,45.779999,190.610001,-16.030001,1770467759.408153
2.6736958800000004,2.70720684,15.87940776,42.209999,218.330002,-9.66,1770467759.416153
0.6079845600000001,2.6090676,19.49380416,33.810001,235.690002,-9.59,1770467759.424218
-1.5199614000000001,0.5026644,25.1691246,27.02,229.669998,4.97,1770467759.432158
-4.394723040000001,-1.5630469200000001,29.082726,42.560001,200.130005,16.17,1770467759.440149
-7.475337720000001,-1.3907048400000002,27.93138516,31.780001,139.300003,30.66,1770467759.448132
-9.82349856,-0.8545294800000001,24.47257536,8.12,82.949997,22.889999,1770467759.456237
-9.7660512,-1.42900308,19.34779212,-19.18,51.169998,17.85,1770467759.464183
-8.95939452,-2.38406544,15.75972576,-31.99,32.27,-2.45,1770467759.472145
-8.408857320000001,-3.07104012,13.10278536,-41.09,29.4,-7.49,1770467759.480145
-8.08571592,-3.2912550000000005,10.874306520000001,-36.330002,34.16,-14.7,1770467759.488145
-7.93970388,-2.78619696,9.01684188,-33.32,40.950001,-20.16,1770467759.496245
-7.97560848,-1.7784745200000003,7.2886338,-25.34,45.849998,-25.27,1770467759.504153
-7.913373840000001,-0.50027076,5.70165048,-20.65,44.099998,-35.0,1770467759.512157
-7.815234600000001,0.50984532,4.63648068,-18.76,35.98,-41.650002,1770467759.520184
-7.405922160000001,1.02208428,3.7388656800000004,-12.81,19.459999,-50.959999,1770467759.528214
-6.690223800000001,0.9766051200000001,2.99205,-5.04,5.18,-54.529999,1770467759.536134
-5.991280920000001,0.8832531600000001,2.0896477200000003,3.22,-11.2,-50.119999,1770467759.54415
-5.21334792,0.94309416,1.2063945600000001,6.09,-28.559999,-56.490002,1770467759.55215
-4.41147852,1.0532016,0.3949506,8.75,-46.900002,-51.799999,1770467759.560216
-3.51386352,1.29735288,-0.03111732,11.62,-65.449997,-51.939999,1770467759.568152
-2.3290117200000005,1.6420370400000002,0.12446928,9.24,-88.339996,-43.889999,1770467759.576148
-1.23511824,2.08486044,0.63670824,7.42,-109.550003,-38.709999,1770467759.584151
3.7029610800000006,-0.38776968,1.9867212,21.209999,-90.650002,-44.52,1770467759.59229
0.5481435600000001,0.76357116,2.5109283600000003,-8.12,-99.400002,-34.860001,1770467759.600164
0.6295273200000001,2.37209724,2.9393899200000004,-2.66,-102.410004,-8.4,1770467759.608224
1.40746032,2.84364432,4.40669124,20.02,-79.870003,7.0,1770467759.616155
1.63485612,3.68141832,7.420284,43.470001,-52.360001,27.16,1770467759.624143
1.57740876,4.07876256,10.879093800000001,46.689999,12.04,4.41,1770467759.63224
0.7803266400000001,5.7231932400000005,12.997465200000002,39.619999,58.939999,29.82,1770467759.640222
-0.61755912,5.70643776,14.68019412,28.07,97.720001,30.799999,1770467759.648151
-3.470778,4.234349160000001,17.2222398,24.780001,138.039993,14.14,1770467759.656151
-6.6064464,2.22847884,19.59912432,34.439999,157.919998,41.650002,1770467759.6643
-9.11019384,1.26623556,21.24116136,37.66,143.639999,38.080002,1770467759.672144
-11.03228676,0.30399228000000006,21.55233456,15.89,100.730003,47.740002,1770467759.680149
-13.176988200000002,-2.154276,21.94728516,-7.0,58.939999,22.469999,1770467759.688149
-13.332574800000002,-3.72450384,19.93662756,-25.48,8.12,9.03,1770467759.696364
-12.6743238,-4.70589624,17.00920584,-45.009998,-43.470001,-7.07,1770467759.704162
-11.06579772,-5.0984532,14.27088168,-60.200001,-86.449997,-17.290001,1770467759.712162
-8.94503268,-4.935685680000001,11.31952356,-66.639999,-115.919998,-27.719999,1770467759.720141
-6.592084560000001,-4.14578448,9.11019384,-63.98,-136.429993,-26.809999,1770467759.728219
-4.535947800000001,-3.4229052,7.25512284,-62.299999,-148.330002,-29.75,1770467759.736176
-2.7598669200000003,-2.17342512,5.62266036,-53.200001,-154.419998,-22.540001,1770467759.74415
-1.21836276,-1.2063945600000001,4.289402880000001,-43.75,-161.559998,-21.42,1770467759.752151
-0.04308552,-0.59841,3.0830083200000002,-32.759998,-162.539993,-7.84,1770467759.760144
0.69654924,-0.41409972,2.10161592,-19.110001,-160.300003,-3.22,1770467759.768216
1.8359218800000001,-0.90479592,1.256661,-11.97,-156.729996,-2.31,1770467759.776152
2.08486044,0.18909756000000003,0.1555866,0.21,-150.779999,17.08,1770467759.784171
2.3864590800000003,0.63910188,-0.60559092,14.63,-143.009995,10.22,1770467759.792204
2.45826828,0.94309416,-1.5917706,24.85,-132.440002,28.84,1770467759.800168
2.5540138800000003,0.8952213600000001,-1.0555952400000002,34.439999,-104.230003,26.6,1770467759.808155
2.3864590800000003,1.8526773600000002,-0.9407005200000002,38.43,-74.760002,28.07,1770467759.816461
2.60428032,2.04416856,0.7228792800000001,37.240002,-38.220001,21.700001,1770467759.824304
3.7556211600000005,2.85321888,2.9896563600000006,34.860001,0.28,22.469999,1770467759.832157
4.10030532,2.7407178,5.735161440000001,32.060001,41.509998,7.28,1770467759.840185
4.38754212,2.7814096800000003,8.456730120000001,36.75,84.629997,1.61,1770467759.848132
4.62451248,3.05428464,11.120851440000001,39.759998,128.729996,-2.45,1770467759.856156
4.40190396,3.1237002,13.792153680000002,42.419998,164.360001,-12.11,1770467759.864171
3.5856727200000003,2.1447014400000004,15.47727624,34.299999,187.179993,-14.14,1770467759.872327
1.44097128,2.64018492,17.50468932,27.299999,202.720001,-13.37,1770467759.880155
0.20106576,0.8497422000000001,22.55048244,28.84,208.460007,-2.87,1770467759.888151
-1.96757208,-1.4146412400000001,26.54068032,38.57,193.339996,9.52,1770467759.89615
-4.77770544,-2.03220036,26.06195232,44.52,145.809998,17.5,1770467759.90417
-6.9224068800000005,-1.8239536800000002,23.981879160000002,30.1,96.389999,33.32,1770467759.912197
-9.852222240000001,-3.83700492,20.681049599999998,-4.48,77.629997,18.620001,1770467759.92016
-8.49981564,-3.2792868000000004,17.294049,-23.59,56.139999,1.82,1770467759.928154
-8.2819944,-3.45641616,14.519820240000001,-28.42,55.299999,-12.11,1770467759.936145
-8.07374772,-3.23859492,11.965806360000002,-27.02,60.200001,-21.42,1770467759.94415
-7.994757600000001,-2.513322,9.97429788,-21.91,66.43,-33.32,1770467759.952258
-8.0306622,-1.4242158,8.119226880000001,-19.530001,73.779999,-40.880001,1770467759.96016
-8.064173160000001,-0.13643748,6.54899904,-14.21,73.989998,-46.549999,1770467759.968152
-8.10965232,0.7731457199999999,5.206167,-17.57,65.169998,-56.0,1770467759.976528
-7.690765320000001,1.4146412400000001,3.9734424,-16.66,44.029999,-68.25,1770467759.98495
-6.821874,1.08671256,3.34870236,-5.53,29.889999,-74.970001,1770467759.992176
-6.53224356,1.29495924,1.9795402800000002,-0.56,8.75,-64.82,1770467760.00023
-5.77824696,1.5941642400000002,1.08671256,7.14,-10.22,-72.449997,1770467760.008169
-4.90935564,1.50081228,0.49548348,11.2,-26.809999,-64.400002,1770467760.016237
-3.7747702800000003,1.63006884,0.09813924000000002,13.3,-44.240002,-51.310001,1770467760.024148
-2.5588011600000002,1.88379468,0.24893856,11.55,-61.599998,-48.790001,1770467760.032159
-1.50081228,2.09682864,0.6343146,4.41,-73.849998,-35.0,1770467760.040154
-0.7683584400000001,2.01544488,1.1226171600000001,-3.15,-84.419998,-31.780001,1770467760.04815
-0.47872800000000004,1.70666532,1.6516116,-11.13,-86.099998,-20.440001,1770467760.056164
0.14840568,1.76411268,2.06571132,-8.19,-80.220001,-1.33,1770467760.064158
1.0340524800000002,2.70720684,3.01119912,2.52,-78.120003,18.969999,1770467760.072182
-0.21064032000000002,3.9207823200000003,5.737555080000001,12.11,-59.009998,29.889999,1770467760.080165
0.70373016,3.3917878800000003,10.48174956,27.51,-31.360001,29.540001,1770467760.088143
-0.25372584000000004,5.35217904,13.74906816,23.24,20.440001,19.879999,1770467760.096143
-1.8143791200000001,5.65377768,15.946429680000001,6.3,50.330002,42.77,1770467760.10416
-4.41865944,4.07397528,18.40948524,-6.02,70.279999,25.059999,1770467760.112259
-7.33171932,1.63485612,19.979713080000003,1.19,75.879997,40.18,1770467760.120178
-9.9575424,0.18191664000000002,19.73316816,13.44,75.879997,57.68,1770467760.128159
-11.78388972,-2.70241956,20.874934440000004,3.99,72.940002,38.5,1770467760.136156
-11.362609080000002,-4.21998732,20.71216692,-3.36,44.169998,27.860001,1770467760.144215
-11.59000488,-4.966803,19.73316816,-13.65,8.33,16.870001,1770467760.152137
-11.61154764,-5.72558688,17.04989772,-33.110001,-21.91,9.45,1770467760.160139
-10.232811,-5.4527119200000005,14.05784772,-42.98,-54.669998,-14.49,1770467760.168139
-8.6410404,-5.06494224,11.43202464,-56.630001,-88.550003,-21.98,1770467760.176138
-6.66150012,-4.1170608,9.0120546,-63.77,-117.879997,-21.98,1770467760.18415
-4.78728,-2.89391076,7.3245384,-63.209999,-139.649994,-24.219999,1770467760.192243
-3.0040182,-1.73778264,5.962557240000001,-59.57,-153.229996,-13.02,1770467760.200171
-0.71091108,-1.3667684400000002,5.153506920000001,-44.240002,-154.559998,-11.76,1770467760.208146
0.43564248000000005,-0.17952300000000002,3.36067056,-39.830002,-157.5,9.1,1770467760.216152
0.70373016,0.28005588000000003,2.20932972,-29.75,-154.490005,5.39,1770467760.224153
1.8431028,-0.35186508,1.38113028,-24.780001,-149.449997,10.78,1770467760.232182
2.37927816,1.555866,-0.24415128000000003,-11.55,-152.880005,9.87,1770467760.24024
2.56358844,1.5798024,-0.78272028,3.57,-148.679993,24.15,1770467760.248136
2.31943716,1.9603911600000001,-1.38113028,12.74,-135.520004,30.799999,1770467760.256141
2.27874528,2.13273324,-1.41703488,19.67,-117.879997,24.709999,1770467760.264147
2.67608952,2.0704986,-0.70133652,29.469999,-85.470001,22.26,1770467760.272153
3.26253132,1.9771466400000002,1.23033096,30.1,-47.040001,24.15,1770467760.280164
4.11945444,1.65639888,3.7077483600000005,35.419998,-9.45,9.1,1770467760.288129
4.7753118,1.8478900800000002,6.285698640000001,42.91,32.549999,-8.19,1770467760.296144
5.52212748,1.70666532,9.435728880000001,49.98,87.5,-0.98,1770467760.304192
5.41441368,2.08007316,12.087882,58.099998,131.740005,-23.24,1770467760.312154
4.81839732,2.03938128,14.44083012,55.860001,170.940002,-14.0,1770467760.320168
3.21465852,1.70187804,15.929674200000001,54.040001,206.710007,-22.120001,1770467760.328253
0.7899012,1.22793732,18.9935334,45.290001,221.130005,-10.22,1770467760.336149
-0.9215514,-0.46436616000000003,26.20557072,48.439999,219.589996,-0.63,1770467760.344148
-3.96626148,-1.5079932,30.042575640000003,45.43,187.600006,17.639999,1770467760.352151
-7.0420888800000006,-1.77368724,27.9936198,24.219999,131.25,32.48,1770467760.360153
-9.23226948,-2.07528588,23.22070164,0.35,85.050003,34.02,1770467760.368191
-9.737327520000001,-3.1237002,18.46214532,-26.25,66.709999,29.33,1770467760.376153
-9.12455568,-4.3803612,14.95306908,-34.439999,57.259998,7.07,1770467760.384134
-8.85886164,-4.8902065200000004,12.20995764,-35.0,57.189999,5.18,1770467760.392156
-8.68651956,-4.29179652,9.84504132,-33.32,58.73,-13.65,1770467760.400336
-8.86604256,-3.15721116,8.02826856,-26.530001,62.650002,-15.33,1770467760.408131
-8.88279804,-1.52953596,6.534637200000001,-23.309999,62.860001,-21.07,1770467760.41616
-8.72721144,-0.10771380000000001,5.52452112,-21.629999,53.48,-29.26,1770467760.424222
-8.28678168,0.84495492,4.67717256,-21.209999,35.07,-36.119999,1770467760.43216
-7.58065788,1.19682,3.8058876000000006,-20.02,15.12,-39.130001,1770467760.440156
-6.642351000000001,1.2829910400000002,2.90109168,-13.44,-6.93,-46.200001,1770467760.448159
-5.70404412,1.1417662800000001,2.0561367600000002,-9.66,-27.16,-43.75,1770467760.456174
-4.8710574,0.91915776,1.06756344,-2.94,-44.59,-43.540001,1770467760.464141
-3.5425872000000003,0.7228792800000001,0.33032232,7.14,-52.709999,-42.419998,1770467760.472211
-2.53247112,1.1824581600000001,-0.34229052,6.44,-69.580002,-37.029999,1770467760.480162
-1.38113028,1.4912377200000002,-0.009574560000000001,9.45,-83.440002,-31.15,1770467760.488146
-0.27766224,1.7880490800000002,0.6702192000000001,7.91,-93.519997,-31.85,1770467760.496156
0.11250108000000002,1.7473572000000002,1.4098539600000002,5.39,-95.690002,-13.79,1770467760.504144
0.35425872,1.31410836,2.26438344,2.87,-85.68,-27.02,1770467760.512159
3.7532275200000003,3.52343808,2.1207650399999998,9.52,-78.889999,-3.15,1770467760.520171
2.453481,2.28113892,4.7609499600000005,24.01,-54.669998,17.780001,1770467760.528357
2.60428032,3.0255609600000004,7.0253334,35.209999,-10.29,26.809999,1770467760.536136
1.95799752,4.62690612,9.92642508,33.32,37.099998,30.66,1770467760.544152
0.6343146,6.0894201599999995,12.341607840000002,18.76,76.580002,31.08,1770467760.552169
-1.67076072,6.8027248799999995,14.74960968,-2.59,106.540001,36.259998,1770467760.560238
-5.072123160000001,4.966803,18.30895236,-13.58,132.929993,36.400002,1770467760.568176
-8.31311172,1.96757208,21.68159112,6.86,131.740005,60.34,1770467760.57615
-11.28361896,0.39255696000000007,22.97655036,27.299999,99.190002,74.970001,1770467760.584154
-14.70173688,-3.4851398400000004,23.72575968,13.86,71.120003,66.779999,1770467760.592178
-13.995613080000002,-3.8034939600000004,22.284788400000004,-0.98,24.43,44.450001,1770467760.600179
-13.50970416,-4.61254428,20.06588412,-11.62,-19.879999,32.900002,1770467760.608139
-12.42777888,-5.08409136,17.25096348,-29.120001,-57.610001,19.110001,1770467760.616147
-10.713932640000001,-5.52452112,14.558118480000001,-44.310001,-90.019997,0.77,1770467760.624209
-8.5093902,-5.1822306,11.8963908,-55.439999,-116.199997,-13.09,1770467760.632255
-6.2593686,-4.51919232,9.634401,-63.630001,-137.199997,-26.6,1770467760.640149
-4.22716824,-3.4827462000000002,7.92773568,-61.18,-153.229996,-24.01,1770467760.648151
-2.33140536,-2.39603364,6.60165912,-55.93,-167.649994,-21.98,1770467760.656146
-0.60559092,-1.3165020000000003,5.579574840000001,-45.290001,-178.080002,-14.49,1770467760.664178
0.55293084,-0.8832531600000001,4.68435348,-33.669998,-171.289993,-11.13,1770467760.672314
1.8239536800000002,-0.85692312,3.7628020800000006,-33.32,-168.770004,6.79,1770467760.680149
3.0877956,-0.44761068000000004,2.3768845200000004,-29.540001,-169.399994,7.77,1770467760.688159
3.46838436,-0.038298240000000004,1.1226171600000001,-18.969999,-167.440002,15.82,1770467760.69614
3.87290952,0.41888700000000006,0.05744736,-7.35,-159.460007,28.84,1770467760.70415
3.59524728,0.9454878,-0.9095832,2.45,-152.110001,36.259998,1770467760.712155
3.0423164400000005,1.5941642400000002,-1.6875162000000001,4.9,-140.979996,41.860001,1770467760.720158
3.92317596,0.34707780000000005,-1.86225192,12.67,-125.720001,44.939999,1770467760.728255
2.9106662400000003,1.5486850800000003,-1.52714232,22.889999,-82.669998,31.360001,1770467760.736178
4.1338162800000005,0.777933,0.39973788,29.75,-37.029999,48.09,1770467760.744146
4.41147852,0.6295273200000001,2.752686,49.77,18.83,23.450001,1770467760.752148
5.4527119200000005,0.5505372000000001,6.084632880000001,60.549999,70.489998,36.049999,1770467760.760175
5.74234236,1.5917706,9.35434512,65.169998,129.5,23.030001,1770467760.768736
5.58196848,2.3912463600000002,11.546919360000002,66.919998,176.610001,12.39,1770467760.776149
5.33302992,2.5228965600000004,13.33496844,63.91,216.720001,1.82,1770467760.78414
4.29897744,2.0202321600000004,15.0081228,56.419998,247.800003,1.12,1770467760.792148
2.2452343200000002,1.15134084,18.09352476,52.220001,267.679993,18.059999,1770467760.800163
-0.44521704,1.01969064,24.029751960000002,48.299999,264.529999,27.65,1770467760.80816
-3.7556211600000005,-0.69654924,27.134303040000002,34.02,234.710007,48.580002,1770467760.816183
-7.10671716,-1.3907048400000002,25.552107,24.85,179.619995,58.799999,1770467760.824284
-10.950903000000002,-3.3870006000000004,22.560057,-9.52,137.619995,58.029999,1770467760.832213
-10.931753879999999,-3.7819512,17.43527376,-24.219999,107.730003,36.259998,1770467760.840152
-10.98441396,-4.2726474,14.57248032,-28.209999,89.040001,17.780001,1770467760.848149
-10.65409164,-4.289402880000001,12.66474924,-31.219999,77.209999,0.35,1770467760.856165
-10.323769320000002,-3.87290952,10.79771004,-28.559999,73.080002,-14.0,1770467760.864284
-9.933606,-3.0447100799999998,9.024022800000001,-24.360001,68.529999,-32.41,1770467760.872145
-9.59131548,-1.99390212,7.367623920000001,-24.219999,61.529999,-42.630001,1770467760.880153
-8.93545812,-0.88085952,5.7926088,-22.33,45.709999,-54.880001,1770467760.888151
-8.068960440000001,-0.0359046,4.7992482,-19.459999,24.99,-51.939999,1770467760.89613
-7.06841892,-0.47394072000000004,4.42105308,-8.19,-2.24,-63.07,1770467760.904156
-6.082239240000001,1.0149033600000001,3.5330126400000004,-4.34,-28.98,-64.190002,1770467760.912192
-5.36654088,1.256661,3.0351355200000003,0.91,-44.450001,-57.119999,1770467760.920149
-4.492862280000001,1.78565544,2.31225624,4.9,-64.190002,-58.099998,1770467760.928159
-3.36067056,2.154276,1.79523,5.74,-80.43,-47.110001,1770467760.936159
-2.2978944,2.3984272800000004,1.34761932,7.0,-97.580002,-37.939999,1770467760.944267
-1.14655356,2.07289224,1.2925655999999999,3.78,-110.110001,-30.17,1770467760.952147
-0.63910188,2.0944350000000003,1.2016072800000002,-4.13,-108.639999,-24.219999,1770467760.96015
0.28005588000000003,2.8005588,1.13937264,-8.68,-110.110001,-20.65,1770467760.968154
1.4696949600000002,3.63354552,1.27820376,1.75,-114.660004,10.71,1770467760.97633
1.90055016,3.47556528,1.92209292,9.31,-98.980003,21.35,1770467760.984424
2.04416856,3.41333064,3.32955324,22.33,-64.260002,37.52,1770467760.992284
1.96757208,4.00216608,5.550851160000001,34.650002,-7.91,40.110001,1770467761.000149
1.44097128,5.78782152,8.63385948,42.419998,58.310001,35.139999,1770467761.008164
0.57207996,7.616562480000001,12.564216360000001,31.360001,113.050003,31.43,1770467761.016871
-1.35480024,8.377740000000001,16.1690382,7.77,149.520004,28.77,1770467761.024166
-4.966803,6.64713828,19.421994960000003,-22.889999,173.389999,33.25,1770467761.032192
-8.985724560000001,2.99923092,21.44940804,-7.49,172.130005,42.209999,1770467761.040149
-12.772463040000002,2.08007316,20.657113199999998,15.33,152.740005,54.599998,1770467761.048232
-16.54244604,0.04069188,20.614027680000003,5.11,115.080002,35.700001,1770467761.056155
-16.00627068,-3.4396606800000002,19.398058560000003,-9.24,46.619999,23.59,1770467761.064165
-16.55441424,-4.2319555200000005,17.69857416,-29.4,-12.95,24.57,1770467761.072239
-15.51796812,-5.30430624,15.769300320000001,-39.759998,-67.269997,-3.99,1770467761.080162
-12.40384248,-6.156442080000001,13.96928304,-40.18,-107.239998,-25.690001,1770467761.088148
-9.12934296,-6.0367600800000005,11.95144452,-40.529999,-140.419998,-23.309999,1770467761.096145
-6.5442117600000005,-5.17983696,9.663124680000001,-46.200001,-167.440002,-40.459999,1770467761.10413
-4.37557392,-3.8178558000000002,7.6572543600000005,-49.419998,-188.789993,-31.5,1770467761.112138
-2.43911916,-2.73114324,6.38144424,-45.009998,-203.210007,-31.99,1770467761.120197
-0.44282340000000003,-1.88618832,5.5604257200000005,-31.01,-211.119995,-19.6,1770467761.12815
0.9526687200000001,-1.1609154000000002,4.86627012,-19.809999,-212.100006,-12.88,1770467761.136147
2.1590632800000003,-1.0053288,4.1888700000000005,-12.53,-205.240005,-0.56,1770467761.144149
3.43726704,-0.29441772,2.9369962800000002,-5.32,-207.410004,2.73,1770467761.152287
3.59524728,0.17473572,1.78565544,2.31,-200.339996,9.31,1770467761.160144
4.136209920000001,1.0149033600000001,0.32314139999999997,13.09,-185.639999,27.719999,1770467761.168147
2.76704784,1.1848518000000001,-0.40452516000000005,20.23,-157.990005,30.450001,1770467761.176145
3.16678572,0.8329867200000001,-1.22793732,24.01,-133.210007,45.150002,1770467761.184146
3.4851398400000004,1.04602068,-1.38352392,31.92,-93.099998,37.73,1770467761.192143
3.4588098,0.5361753600000001,-0.16276752,33.740002,-53.48,48.09,1770467761.200194
3.82743036,0.45718524,1.39788576,44.450001,8.75,20.58,1770467761.208219
4.49764956,0.67979376,3.61918368,46.900002,55.509998,35.139999,1770467761.216157
4.83275916,1.0053288,6.86256588,49.630001,103.459999,13.72,1770467761.224153
5.02425036,1.68272892,9.68466744,49.560001,156.380005,-7.84,1770467761.232151
4.80403548,1.7593254,12.06873288,45.849998,211.119995,3.57,1770467761.240142
4.1050926,0.5792608800000001,13.89747384,31.639999,255.570007,-16.940001,1770467761.248169
2.7718351200000004,0.83059308,16.03020708,25.200001,285.459991,11.06,1770467761.256226
0.4667598,0.9981478800000001,21.853933200000004,12.11,302.119995,20.02,1770467761.264148
-4.07636892,-0.55771812,27.287496,-1.12,286.790009,32.27,1770467761.27215
-7.393953960000001,-1.7784745200000003,26.930843640000003,6.58,223.440002,59.290001,1770467761.280136
-12.741345720000002,-2.99205,24.23799864,-6.09,156.309998,47.599998,1770467761.288125
-14.024336760000002,-3.2673186000000003,18.60337008,-24.360001,88.760002,38.779999,1770467761.296146
-12.6384192,-3.93993144,14.92913268,-25.969999,58.52,13.93,1770467761.304141
-11.774315160000002,-2.94896448,12.731771160000001,-25.690001,34.299999,-1.89,1770467761.312213
-10.87191288,-1.9986894000000002,11.130426000000002,-28.98,18.9,-25.129999,1770467761.320191
-9.99823428,-0.9766051200000001,9.7660512,-28.139999,2.45,-39.060001,1770467761.328156
-9.32083416,-0.0119682,8.21736612,-30.66,-12.6,-49.139999,1770467761.33615
-8.26523892,0.6199527600000001,6.687830160000001,-26.809999,-28.35,-59.150002,1770467761.344301
-7.12347264,1.14415992,5.43835008,-23.309999,-38.779999,-67.199997,1770467761.352157
-5.90510988,1.4912377200000002,4.33727568,-19.040001,-49.77,-72.379997,1770467761.360151
-4.75616268,1.6468243200000001,3.31997868,-8.12,-56.349998,-70.279999,1770467761.368146
-3.77955756,1.82156004,2.43672552,3.36,-65.029999,-67.480003,1770467761.376148
-2.96571996,2.08007316,1.62528156,12.88,-73.010002,-61.040001,1770467761.384204
-2.4032145600000003,2.3768845200000004,1.23511824,19.809999,-82.879997,-54.950001,1770467761.392188
-1.84070916,2.91305988,1.0412334,17.08,-92.190002,-48.23,1770467761.400163
-0.7348474800000001,2.90587896,1.16809632,15.68,-104.790001,-35.349998,1770467761.408142
0.39255696000000007,3.5210444400000003,1.0340524800000002,9.1,-123.620003,-18.620001,1770467761.416261
0.8329867200000001,3.64312008,1.1369790000000002,10.43,-141.119995,7.28,1770467761.424143
0.8138376,3.6885992400000003,1.2877783200000001,9.45,-142.309998,17.290001,1770467761.432165
1.08431892,3.3630642,1.7593254,11.55,-123.760002,28.42,1770467761.440152
1.5367168800000002,3.4300861200000003,3.01119912,23.870001,-87.220001,29.889999,1770467761.448361
1.75453812,3.96626148,5.18701788,35.209999,-30.379999,31.639999,1770467761.456161
2.0130512400000002,5.021856720000001,8.078535,40.740002,43.049999,32.27,1770467761.464156
1.9532102400000002,5.735161440000001,11.11606416,37.52,109.269997,26.389999,1770467761.472149
0.7611775199999999,5.9721318000000005,14.6371086,15.96,160.229996,25.129999,1770467761.480144
-1.7449635600000002,5.2037733600000005,19.01028888,-10.22,197.050003,18.549999,1770467761.488131
-5.58675576,2.15666964,23.24703168,-14.35,218.470001,16.73,1770467761.496191
-10.99398852,0.045479160000000005,23.505544800000003,13.23,195.160004,47.040001,1770467761.504154
-16.78420368,-2.92981536,23.122562400000003,3.92,168.279999,40.18,1770467761.512244
-15.53951088,-2.9369962800000002,20.30764176,-1.33,109.059998,28.42,1770467761.520152
-15.922493280000001,-3.92796324,18.77331852,-4.13,40.040001,9.66,1770467761.528178
-15.357594240000001,-4.64844888,16.621436160000002,-19.6,-33.810001,2.73,1770467761.536165
-13.56954516,-4.99792032,14.47912836,-34.369999,-94.010002,-15.26,1770467761.544193
-10.7833482,-5.467073760000001,12.533099040000002,-45.009998,-141.190002,-29.469999,1770467761.552156
-7.83677736,-5.036218560000001,10.486536840000001,-50.889999,-173.110001,-34.23,1770467761.560151
-5.09366592,-4.342062960000001,8.69130684,-47.25,-194.949997,-43.189999,1770467761.568177
-2.8603998,-2.9872627200000004,7.360443,-42.419998,-206.639999,-41.509998,1770467761.576152
-0.70373016,-2.2380534,6.278517720000001,-28.629999,-210.0,-36.119999,1770467761.584151
0.3829824,-2.0417749200000004,5.562819360000001,-12.67,-211.539993,-40.389999,1770467761.592151
2.13512688,-1.7090589600000001,4.5718524,-10.57,-194.949997,1.12,1770467761.600144
2.9705072400000003,-1.83352824,3.41572428,-11.2,-180.669998,-31.290001,1770467761.608154
4.51919232,0.19867212,1.5223550399999999,3.08,-176.539993,29.540001,1770467761.616264
4.16253996,-0.43803612,0.52181352,14.07,-158.199997,28.0,1770467761.624146
3.710142,-0.538569,-0.56729268,15.96,-137.830002,40.18,1770467761.632158
3.31997868,-0.08617104,-1.79762364,17.57,-115.010002,49.98,1770467761.640157
2.9561454,-0.02872368,-2.2141170000000003,24.08,-83.650002,49.07,1770467761.648354
2.80295244,0.43803612,-1.7497508400000001,32.759998,-48.02,55.790001,1770467761.656152
3.0877956,1.0651698,-0.13643748,46.130001,-5.95,46.27,1770467761.664156
3.61918368,1.50320592,2.23326612,50.400002,38.639999,41.23,1770467761.67215
3.8585476800000005,2.69763228,5.19898608,51.59,85.260002,32.689999,1770467761.680182
4.16972088,3.6885992400000003,8.85886164,42.139999,130.130005,22.82,1770467761.688185
4.42344672,4.385148480000001,11.16154332,34.299999,171.080002,9.03,1770467761.696158
4.1649336,4.52876688,12.78682488,22.540001,200.130005,1.47,1770467761.704133
3.26253132,3.87051588,14.555724840000002,16.870001,220.429993,2.17,1770467761.712167
1.4242158,4.1769018,17.12888784,8.89,231.070007,10.15,1770467761.720154
-0.9383068800000001,1.33325748,20.25976896,-6.44,231.559998,11.9,1770467761.728231
-4.34685024,-0.60559092,22.56723792,-11.34,214.830002,3.85,1770467761.736305
-6.66150012,-1.74017628,24.194913120000002,5.88,183.190002,23.799999,1770467761.74415
-10.074830760000001,-3.16199844,24.029751960000002,7.91,127.610001,35.139999,1770467761.752165
-11.19744792,-4.13142264,20.623602240000004,4.97,91.419998,3.5,1770467761.760183
-10.92457296,-3.56891724,16.88234292,-3.15,58.939999,-7.49,1770467761.76818
-9.99823428,-2.8675807200000003,14.550937560000001,-12.88,41.720001,-31.780001,1770467761.776153
-9.11258748,-1.96757208,12.521130840000001,-16.870001,32.200001,-46.200001,1770467761.784134
-8.32747356,-1.4146412400000001,10.66605984,-21.139999,28.07,-52.779999,1770467761.792151
-7.24554828,-1.06995708,8.87322348,-30.030001,22.33,-53.060001,1770467761.800151
-6.934375080000001,-0.17952300000000002,7.0301206800000005,-27.02,18.41,-58.59,1770467761.808134
-6.47718984,0.44761068000000004,5.567606640000001,-27.58,11.06,-55.09,1770467761.816299
-5.783034240000001,0.7922948400000001,4.51440504,-26.32,8.61,-45.57,1770467761.824263
-5.31148716,1.16809632,3.3271596000000003,-8.89,-0.98,-68.809998,1770467761.832164
-4.698715320000001,1.57501512,2.36012904,0.14,-11.69,-48.02,1770467761.840157
-4.19844456,1.8718264800000002,1.735389,10.01,-30.17,-60.27,1770467761.848346
-3.6287582400000002,2.5611948,1.02687156,6.51,-47.32,-47.810001,1770467761.856493
-3.32237232,2.54443932,1.3739493600000001,3.57,-58.029999,-40.599998,1770467761.864152
-1.94602932,3.0399228000000003,1.09149984,4.2,-74.480003,-34.23,1770467761.872211
1.4098539600000002,1.32368292,5.47664832,9.59,-97.440002,-17.01,1770467761.880151
0.7731457199999999,1.4840568,1.9723593600000002,8.68,-97.650002,-27.16,1770467761.888154
1.50081228,2.3433735600000003,1.55347236,2.1,-93.519997,25.83,1770467761.896151
1.4242158,2.59470576,1.4673013200000002,3.57,-81.690002,42.349998,1770467761.904165
1.6731543600000003,2.9944436400000005,2.0585304,12.74,-58.310001,33.110001,1770467761.912246
2.0202321600000004,3.7268974800000003,3.92317596,21.629999,-23.940001,44.59,1770467761.920159
1.6635798000000002,4.9308984,6.64713828,30.52,28.07,28.91,1770467761.928152
1.2829910400000002,6.197133960000001,10.51286688,30.66,79.379997,42.419998,1770467761.936146
0.13404384000000003,6.74767116,14.352265440000002,19.18,123.970001,28.84,1770467761.944156
-2.68327044,6.699798360000001,17.7488406,-5.32,149.029999,24.360001,1770467761.952169
-6.340752360000001,4.342062960000001,21.30100236,-22.120001,154.350006,21.35,1770467761.960152
-11.47989744,2.09922228,22.227341040000002,7.21,134.610001,34.16,1770467761.968148
-15.58738368,0.24893856,21.87547596,4.69,106.959999,38.220001,1770467761.976481
-15.182858520000002,-1.42182216,20.3220036,0.21,63.419998,19.110001,1770467761.984343
-15.16849668,-2.71438776,18.909756,-4.41,9.73,6.09,1770467761.99219
-13.816090080000002,-4.16972088,17.64352044,-9.45,-35.209999,-12.88,1770467762.000167
-12.164478480000001,-5.18941152,15.742970280000002,-21.139999,-72.449997,-24.01,1770467762.00813
-10.062862560000001,-5.58675576,14.084177760000001,-32.34,-102.480003,-29.959999,1770467762.016155
-7.56629604,-5.33302992,12.23628768,-39.34,-127.470001,-37.73,1770467762.024165
-5.206167,-4.5981824399999995,10.323769320000002,-39.41,-147.910004,-34.23,1770467762.032246
-3.25295676,-3.5210444400000003,8.36816544,-36.330002,-161.559998,-33.18,1770467762.040159
-1.48645044,-2.35294812,6.95113056,-27.09,-168.419998,-29.82,1770467762.048175
-0.10053288,-1.40267304,5.7207996,-20.23,-171.850006,-17.57,1770467762.056164
0.66064464,-0.97181784,4.74658812,-14.91,-165.410004,-11.41,1770467762.064161
2.07528588,-1.1369790000000002,3.7628020800000006,-13.44,-164.080002,0.28,1770467762.072188
2.61146124,-0.8018694,2.61146124,-14.91,-155.610001,6.44,1770467762.080151
2.86279344,-0.6079845600000001,1.5798024,-7.91,-140.979996,21.84,1770467762.088146
2.86279344,-0.43564248000000005,0.7348474800000001,-0.7,-123.970001,29.889999,1770467762.096145
3.25295676,-1.68033528,0.39255696000000007,7.35,-112.699997,49.349998,1770467762.104134
2.4654492,-1.09149984,-1.0891062,18.200001,-86.239998,45.639999,1770467762.112198
1.9388484000000001,-0.7348474800000001,-1.45293948,21.77,-59.43,54.110001,1770467762.12015
2.03938128,-0.86410404,-0.75160296,34.509998,-27.16,50.540001,1770467762.12815
2.1973615200000003,-0.36622692,0.56729268,47.880001,15.05,44.799999,1770467762.136152
2.4319382400000005,0.01436184,2.812527,54.669998,55.93,37.939999,1770467762.144147
2.6330040000000006,0.6941556000000001,5.98649364,54.110001,100.589996,24.709999,1770467762.152194
2.55640752,1.69469712,9.66551832,47.32,147.139999,17.85,1770467762.160258
1.9196992800000001,2.70002592,12.054371040000001,37.310001,181.929993,-6.02,1770467762.168145
1.73778264,2.59231212,14.34508452,31.01,206.149994,-9.17,1770467762.176134
1.04841432,2.7646542000000003,16.30308204,25.200001,219.380005,-4.13,1770467762.18415
-1.5606532800000001,3.41572428,20.66668776,11.97,212.660004,10.36,1770467762.192185
-3.5449808400000005,1.17767088,24.64731108,2.52,187.809998,17.43,1770467762.200238
-7.22400552,0.08617104,24.553959120000002,15.89,140.559998,29.959999,1770467762.208122
-9.840254040000001,-0.15079932000000001,23.273361720000004,12.88,81.620003,33.740002,1770467762.216144
-10.740262679999999,-1.0579888800000001,20.470409280000002,-3.36,47.529999,23.450001,1770467762.224147
-10.16339544,-1.0723507200000002,16.896704760000002,-16.73,19.530001,3.64,1770467762.232142
-9.361526040000001,-1.1609154000000002,14.871685320000001,-23.1,8.96,-14.49,1770467762.24017
-8.37534636,-0.77553936,13.363692120000001,-25.969999,7.63,-30.940001,1770467762.248168
-7.695552600000001,-0.30399228000000006,11.546919360000002,-29.33,13.3,-33.18,1770467762.256165
-7.13065356,0.12446928,9.72296568,-32.130001,16.870001,-42.419998,1770467762.264147
-6.534637200000001,0.57207996,7.78411728,-31.639999,17.290001,-45.080002,1770467762.272143
-6.11096292,0.98378604,5.92186536,-29.889999,10.78,-49.279999,1770467762.280136
-5.648990400000001,1.06995708,4.5886078800000005,-24.99,4.76,-55.09,1770467762.288129
-5.036218560000001,1.00054152,3.5665236,-13.09,-5.6,-58.099998,1770467762.296159
-4.91174928,0.8329867200000001,2.39364,-12.67,-10.57,-46.549999,1770467762.304174
-3.77955756,0.25851312000000004,2.17581876,3.99,-23.66,-50.400002,1770467762.312222
-3.20987124,0.7468156800000001,1.6875162000000001,10.92,-39.830002,-46.759998,1770467762.320219
-2.64018492,1.2087882,1.2877783200000001,21.700001,-49.700001,-33.950001,1770467762.328158
-1.9196992800000001,1.4792695200000001,1.2853846800000002,19.25,-62.439999,-31.08,1770467762.336294
-1.38352392,1.50081228,1.36916208,17.43,-76.370003,-18.34,1770467762.344147
-0.5146326,1.70666532,1.13937264,10.08,-88.410004,-3.85,1770467762.352167
-0.27048132,2.4630555600000004,0.8736786000000001,4.55,-102.900002,12.95,1770467762.360154
1.05080796,1.27581012,2.8843362000000003,8.68,-122.220001,26.530001,1770467762.36816
1.14415992,1.9556038800000002,2.49177924,23.450001,-94.639999,28.42,1770467762.376272
0.95027508,2.94657084,3.9327505200000004,33.32,-68.599998,39.549999,1770467762.384143
1.33565112,4.00216608,6.486764400000001,35.560001,-29.120001,35.630001,1770467762.39215
1.7784745200000003,5.555638440000001,9.912063240000002,29.75,25.200001,25.27,1770467762.400152
1.29735288,6.52984992,13.70119536,16.66,75.949997,28.77,1770467762.408132
-0.31835412,7.269484680000001,17.16000516,-7.21,119.279999,18.41,1770467762.41616
-3.1332747600000004,6.474796200000001,20.101788720000002,-37.450001,149.449997,18.48,1770467762.424166
-6.484370760000001,2.812527,22.29196932,-39.34,164.5,22.33,1770467762.432194
-10.62058068,0.77553936,22.260852000000003,-5.88,147.490005,49.490002,1770467762.440276
-13.28948928,-0.44042976,21.7940922,-6.09,118.720001,48.09,1770467762.448149
-13.93337844,-2.0944350000000003,20.101788720000002,-16.030001,76.720001,28.84,1770467762.456167
-14.215827960000002,-3.04710372,18.19405764,-17.709999,27.370001,10.92,1770467762.464158
-13.308638400000001,-3.9136014000000006,15.93685512,-29.33,-22.82,-8.54,1770467762.472302
-11.6450586,-4.373180280000001,13.883112,-40.110001,-66.010002,-23.799999,1770467762.48015
-9.50035716,-4.50483048,12.066339240000001,-47.810001,-105.699997,-34.439999,1770467762.488153
-6.72373476,-4.61015064,10.251960120000001,-50.330002,-129.220001,-39.27,1770467762.496158
-4.37557392,-3.7077483600000005,8.43040008,-43.470001,-150.850006,-36.889999,1770467762.504221
-2.5181092800000004,-2.79577152,7.152196320000001,-35.209999,-166.110001,-38.220001,1770467762.512153
-0.18909756000000003,-2.6856640800000005,6.17319756,-18.34,-170.660004,-44.869999,1770467762.520182
0.9335196,-1.68990984,4.90935564,-10.22,-169.050003,-11.76,1770467762.528216
1.4122476000000002,-1.50081228,4.06200708,-7.35,-163.240005,-29.049999,1770467762.536131
2.3649163200000003,-1.65639888,3.051891,-9.03,-151.550003,0.28,1770467762.544155
3.8034939600000004,-0.24654492000000003,1.3883112000000002,2.31,-152.740005,20.440001,1770467762.552385
3.0135927600000003,-0.8090503200000001,0.75160296,10.99,-141.399994,44.799999,1770467762.560151
2.69045136,-1.00772244,0.03111732,18.690001,-122.150002,55.509998,1770467762.568216
2.4247573200000003,-1.10825532,-0.6031972800000001,24.43,-96.459999,53.200001,1770467762.576149
2.04895584,-0.9981478800000001,-1.0101160800000002,34.650002,-59.779999,57.049999,1770467762.584151
1.8694328400000002,-0.59841,-0.9335196,40.32,-25.27,48.93,1770467762.592153
1.8311346,-0.299205,0.1316502,40.32,14.42,48.509998,1770467762.600179
2.04895584,0.0023936400000000003,1.61091972,43.610001,50.119999,40.110001,1770467762.608132
2.453481,0.73724112,4.0691880000000005,44.310001,84.489998,26.74,1770467762.616147
2.66412132,1.83831552,7.84635192,49.0,124.040001,16.1,1770467762.624271
2.79577152,3.111732,11.42723736,50.400002,162.259995,-4.69,1770467762.632154
2.3864590800000003,3.7556211600000005,14.45519196,40.880001,194.389999,-9.31,1770467762.64016
1.4122476000000002,3.8896650000000004,16.17382548,26.530001,209.509995,-11.13,1770467762.648186
-1.0292652,4.7154708,19.70683812,-4.97,190.259995,3.64,1770467762.656169
-3.21705216,3.16678572,24.295446000000002,-28.0,165.270004,12.67,1770467762.664144
-5.64420312,-0.18909756000000003,24.6425238,-21.559999,126.419998,16.73,1770467762.672159
-7.4633695200000005,-1.8478900800000002,24.551565480000004,1.75,75.529999,33.32,1770467762.680153
-11.37218364,-5.23489068,22.861655640000002,-0.7,58.310001,17.01,1770467762.688155
-8.880404400000002,-3.2409885600000004,18.97677792,-6.23,32.830002,1.68,1770467762.696175
-8.43040008,-2.84364432,15.84350316,-10.64,27.16,-16.799999,1770467762.704256
-7.958853,-2.5228965600000004,13.51927872,-22.33,24.99,-26.950001,1770467762.712279
-7.3843794,-1.73778264,11.80303884,-23.1,31.639999,-34.650002,1770467762.720152
-7.087568040000001,-0.8832531600000001,10.053288,-26.25,34.09,-49.84,1770467762.728164
-7.583051520000001,0.08377740000000002,8.7726906,-26.67,22.049999,-47.950001,1770467762.736146
-6.1229311200000005,0.31356684,6.7141602,-29.120001,15.19,-39.48,1770467762.744157
-5.684895,0.84016764,5.1104214,-24.709999,9.45,-61.880001,1770467762.752187
-5.165475120000001,1.0340524800000002,3.84418584,-20.58,0.35,-51.52,1770467762.760156
-4.47131952,0.86649768,2.77422876,-11.76,-13.16,-68.25,1770467762.768167
-3.9542932800000004,1.12979808,1.7784745200000003,-5.11,-25.9,-55.09,1770467762.776155
-3.3343405200000005,1.08671256,1.2590546400000002,4.41,-39.830002,-56.349998,1770467762.784214
-2.60667396,1.45293948,0.7922948400000001,17.08,-52.57,-43.330002,1770467762.792285
-1.8239536800000002,1.98911484,0.66303828,22.68,-67.480003,-41.02,1770467762.800147
-1.13458536,0.31835412,2.81013336,32.130001,-48.580002,-50.82,1770467762.808137
0.22978944,0.8329867200000001,1.48884408,26.110001,-44.869999,-15.82,1770467762.816153
1.0172970000000001,2.25480888,1.2016072800000002,19.32,-50.540001,-5.39,1770467762.824163
1.42900308,2.5779502800000005,1.17527724,25.41,-53.759998,22.120001,1770467762.832155
1.5821960400000001,2.96332632,1.7593254,26.74,-43.82,34.580002,1770467762.840162
1.6444306800000001,3.2673186000000003,3.3822133200000004,31.01,-17.57,27.299999,1770467762.848251
1.43139672,4.83994008,5.7088314,34.720001,23.030001,34.439999,1770467762.856164
1.25426736,6.14208024,9.193971240000002,30.030001,73.080002,23.59,1770467762.864168
0.48590892,7.307782920000001,13.04055072,15.12,122.989998,31.57,1770467762.872224
-1.3404384000000003,7.74821268,17.03314224,-10.22,156.169998,17.08,1770467762.880174
-4.808822760000001,6.5657545200000005,20.874934440000004,-39.200001,173.039993,13.93,1770467762.888158
-9.11258748,2.7885906000000005,23.510332079999998,-27.23,167.789993,34.23,1770467762.89616
-13.799334600000002,0.7276665600000001,23.685067800000002,8.19,136.289993,58.52,1770467762.904162
-15.97275972,-1.4481522,22.00233888,3.43,107.589996,43.889999,1770467762.912153
-15.50360628,-2.4893856,18.754169400000002,0.98,60.27,26.32,1770467762.920144
-15.1038684,-3.3319468800000003,16.937396640000003,-8.89,10.29,6.72,1770467762.928148
-14.2900308,-4.07636892,14.84535528,-23.24,-41.02,-14.35,1770467762.936133
-12.872995920000001,-4.914142920000001,13.01182704,-37.450001,-92.330002,-34.439999,1770467762.944159
-10.706751720000002,-4.83275916,11.2142034,-46.970001,-136.080002,-49.560001,1770467762.952493
-5.8285134,-5.7088314,11.4415992,-37.52,-182.839996,-49.209999,1770467762.960162
-5.206167,-4.32291384,8.65540224,-37.450001,-178.990005,-58.66,1770467762.968148
-2.8675807200000003,-2.90109168,7.501667760000001,-28.98,-194.949997,-56.0,1770467762.97626
-0.16037388000000002,-2.42715096,6.481977120000001,-17.709999,-205.520004,-48.580002,1770467762.985056
1.14415992,-1.7904427200000002,5.66813952,-7.77,-199.289993,-42.419998,1770467762.992178
2.37209724,-1.47448224,4.3923294,-7.21,-195.649994,-25.129999,1770467763.000163
2.76704784,-1.06995708,3.13088112,-7.14,-191.660004,-15.68,1770467763.008137
4.12663536,-1.10825532,2.1231586800000004,-2.31,-185.850006,2.38,1770467763.016141
3.99019788,-0.7731457199999999,0.61755912,5.46,-168.350006,25.41,1770467763.024156
3.61679004,-0.62713368,-0.64867644,11.34,-152.529999,38.639999,1770467763.032175
2.8197079200000004,-0.26569404,-1.5821960400000001,9.8,-134.539993,36.610001,1770467763.040157
3.4420543200000004,-1.8239536800000002,-1.31410836,24.01,-86.660004,53.970001,1770467763.048271
3.51625716,-0.8712849600000001,-1.51038684,41.369999,-34.299999,34.369999,1770467763.056166
3.04949736,-0.32074776000000005,-0.052660080000000005,49.209999,17.219999,46.060001,1770467763.064202
3.3463087200000006,0.1436184,2.16385056,52.43,62.509998,31.780001,1770467763.072157
3.5784918,0.86649768,5.0505804,54.389999,109.480003,27.16,1770467763.08016
4.31573292,2.50614108,8.10965232,53.759998,154.279999,23.59,1770467763.088159
3.94711236,3.2888613600000003,11.070585000000001,47.529999,197.889999,5.74,1770467763.096235
3.6000345600000005,3.54737448,13.33018116,35.560001,232.820007,4.27,1770467763.104144
2.5181092800000004,3.20508396,15.33605148,24.780001,246.679993,2.31,1770467763.112149
0.12925656000000002,3.6359391600000004,19.52492148,7.0,246.610001,17.780001,1770467763.12014
-3.60960912,2.5803439200000002,23.263787160000003,-9.66,226.729996,17.290001,1770467763.128143
-6.6854365200000005,-0.33750324,24.350499720000002,-14.0,185.919998,25.76,1770467763.136143
-9.45727164,-1.60134516,24.7263012,1.19,126.629997,34.23,1770467763.14414
-14.06742228,-4.1529654,22.57920612,-4.69,86.309998,17.01,1770467763.152303
-11.98495548,-3.051891,18.56507184,-9.31,46.130001,1.26,1770467763.160153
-11.19984156,-2.7215686800000003,15.625681920000002,-12.67,26.18,-20.440001,1770467763.168144
-10.019777040000001,-2.3768845200000004,13.586300640000001,-18.27,20.299999,-34.93,1770467763.176141
-8.85886164,-1.8526773600000002,11.79585792,-20.790001,21.209999,-49.349998,1770467763.18413
-7.875075600000001,-1.0292652,10.067649840000001,-26.879999,21.280001,-60.48,1770467763.192144
-7.0373016,-0.32314139999999997,8.24369616,-31.780001,19.18,-63.98,1770467763.200176
-6.50830716,0.26569404,6.69501108,-35.560001,8.96,-72.730003,1770467763.208123
-6.043941,0.94309416,5.036218560000001,-30.73,2.8,-68.32,1770467763.216149
-5.42398824,1.18963908,3.63354552,-20.860001,-6.23,-74.480003,1770467763.224191
-5.28515712,1.34761932,2.33140536,-21.0,-33.669998,-67.760002,1770467763.232148
-4.136209920000001,1.47448224,1.6731543600000003,0.56,-39.48,-67.550003,1770467763.240141
-3.40614972,1.80480456,1.2375118800000002,11.41,-49.349998,-52.919998,1770467763.248148
-3.0614655600000003,2.0106576,0.78272028,11.41,-57.82,-50.540001,1770467763.256159
