acc_x,acc_y,acc_z,gyro_x,gyro_y,gyro_z,timestamp
-0.332816,0.141032,0.999912,-6.23,-12.11,-27.51,1770467752.064076
-0.308904,0.128588,1.02114,-3.43,-15.26,-29.540001,1770467752.072189
-0.27084,0.113948,1.036024,-3.01,-16.24,-33.459999,1770467752.080172
-0.234972,0.110044,1.040416,1.12,-17.5,-32.41,1770467752.08813
-0.200812,0.107604,1.042124,0.98,-17.15,-34.16,1770467752.096145
-0.174216,0.094428,1.043588,1.4,-15.05,-29.75,1770467752.10415
-0.15616,0.074664,1.033096,1.96,-11.48,-32.619999,1770467752.112151
-0.140788,0.066856,1.028216,2.8,-10.5,-29.610001,1770467752.120177
-0.129564,0.060512,1.02602,0.56,-7.7,-26.110001,1770467752.128319
-0.124196,0.049288,1.02846,1.47,-4.69,-26.25,1770467752.13618
-0.122976,0.043432,1.032852,0.63,-0.98,-19.32,1770467752.144143
-0.141764,0.061488,1.015284,1.54,3.43,-21.209999,1770467752.152144
-0.138592,0.037088,1.018456,3.57,7.42,-13.65,1770467752.160167
-0.166652,0.055632,0.9882,1.68,9.1,-17.709999,1770467752.168162
-0.199104,0.055388,0.988444,2.03,5.95,-8.4,1770467752.176233
-0.207156,0.065636,0.986736,6.65,7.98,-4.62,1770467752.184148
-0.233752,0.076372,0.974048,8.26,7.63,-4.83,1770467752.192145
-0.250344,0.135176,0.972828,8.54,4.55,-6.37,1770467752.200145
-0.246684,0.157136,0.962824,7.42,5.88,-1.75,1770467752.208143
-0.254736,0.185684,0.951844,7.98,3.5,-3.85,1770467752.21614
-0.251076,0.22082,0.936716,5.46,4.06,1.61,1770467752.224132
-0.255224,0.223504,0.92598,5.67,4.97,-1.26,1770467752.232145
-0.256444,0.208864,0.930372,1.96,5.67,-0.98,1770467752.240153
-0.264496,0.1708,0.94062,1.19,7.42,3.15,1770467752.248188
-0.273524,0.143228,0.944768,3.08,8.05,1.26,1770467752.256165
-0.288896,0.11102,0.954528,5.67,8.26,0.56,1770467752.264272
-0.315736,0.06588,0.970388,11.9,5.32,1.12,1770467752.272153
-0.35746,0.025376,0.983808,20.860001,4.55,2.17,1770467752.280138
-0.342088,0.053436,1.003572,27.790001,-3.36,-5.53,1770467752.288121
-0.33428,0.10492,1.02236,27.23,-10.22,-15.96,1770467752.296151
-0.316956,0.146156,1.032608,24.780001,-13.72,-12.6,1770467752.304169
-0.308172,0.177144,1.03456,21.0,-14.7,-19.950001,1770467752.312187
-0.286944,0.222528,1.029192,18.76,-14.28,-17.01,1770467752.320158
-0.267668,0.255956,1.023336,16.870001,-13.23,-21.209999,1770467752.328148
-0.247416,0.27938,1.022604,15.33,-16.030001,-21.209999,1770467752.336151
-0.235948,0.26962,1.02968,14.56,-11.62,-19.6,1770467752.344154
-0.233996,0.271572,1.031388,18.129999,-8.68,-20.440001,1770467752.352151
-0.23058,0.279624,1.036512,17.57,-8.47,-21.209999,1770467752.360148
-0.228628,0.280356,1.047004,15.89,-8.26,-22.469999,1770467752.36819
-0.227896,0.270108,1.037244,14.0,-9.45,-20.16,1770467752.376162
-0.231312,0.26108,1.018212,10.01,-8.68,-16.73,1770467752.384168
-0.228628,0.245464,0.998204,6.23,-7.35,-19.809999,1770467752.392152
-0.223504,0.230092,0.973072,1.96,-10.15,-17.709999,1770467752.400148
-0.221796,0.215208,0.966972,-1.82,-11.48,-19.809999,1770467752.408151
-0.21472,0.205204,0.97478,-2.24,-15.33,-19.6,1770467752.416151
-0.206424,0.192516,0.986736,-4.13,-15.68,-15.89,1770467752.424266
-0.20374,0.17934,0.980148,-4.9,-16.66,-20.65,1770467752.432185
-0.210328,0.15738,0.96624,-7.77,-16.450001,-15.26,1770467752.440163
-0.21594,0.130296,0.945256,-10.08,-15.4,-11.9,1770467752.448152
-0.221064,0.106872,0.937692,-8.89,-14.91,-11.06,1770467752.456181
-0.230336,0.09028,0.940132,-10.85,-14.35,-5.25,1770467752.464157
-0.239852,0.080032,0.943792,-9.59,-16.73,-7.98,1770467752.47226
-0.248148,0.074176,0.96746,-8.89,-21.49,-4.83,1770467752.48015
-0.234728,0.062708,0.997472,-7.7,-27.440001,-5.6,1770467752.488191
-0.226432,0.07686,1.00894,-5.88,-29.68,-1.68,1770467752.496347
-0.213988,0.078812,0.992836,-2.87,-35.139999,-0.56,1770467752.504157
-0.195444,0.071248,0.947452,-4.34,-37.869999,-3.5,1770467752.512151
-0.17812,0.056852,0.899628,-1.12,-42.560001,-1.89,1770467752.520209
-0.149084,0.048556,0.878888,2.24,-47.18,-0.28,1770467752.528248
-0.116876,0.050264,0.894016,4.13,-49.98,1.12,1770467752.53614
-0.092232,0.062464,0.941108,5.53,-46.759998,1.33,1770467752.544153
-0.06344,0.072224,0.987224,5.95,-42.91,-1.47,1770467752.552155
-0.012932,0.058072,1.043588,6.3,-35.700001,1.26,1770467752.560237
0.019276,0.089792,1.064084,1.68,-30.1,1.26,1770467752.568177
0.030988,0.0976,1.067256,-0.56,-27.51,5.53,1770467752.576163
0.04392,0.102968,1.066768,-5.53,-23.030001,10.15,1770467752.584157
0.05124,0.097844,1.078724,-5.11,-19.809999,8.96,1770467752.592236
0.05002,0.100284,1.087264,-5.81,-15.05,15.96,1770467752.600155
0.046604,0.107116,1.09068,-2.73,-10.15,13.37,1770467752.608153
0.035868,0.132492,1.085556,-1.89,-7.77,16.940001,1770467752.616156
0.019032,0.168116,1.08458,-0.14,-4.9,21.91,1770467752.62425
0.002196,0.207156,1.07482,1.33,-2.24,19.459999,1770467752.632153
-0.017812,0.236192,1.05164,1.33,-2.59,21.559999,1770467752.640164
-0.03782,0.26108,1.006988,1.54,-3.71,20.440001,1770467752.648157
-0.05368,0.275232,0.96746,3.15,-5.32,23.379999,1770467752.656223
-0.05246,0.275476,0.947452,4.41,-6.37,24.709999,1770467752.664159
-0.04636,0.27572,0.9394,6.51,-10.15,24.01,1770467752.672172
-0.028548,0.272792,0.937204,7.56,-15.05,22.33,1770467752.680148
0.003172,0.272792,0.94184,10.78,-19.809999,21.209999,1770467752.688141
0.042944,0.27694,0.974292,11.97,-23.66,24.5,1770467752.696319
0.082472,0.293288,0.999912,12.67,-23.66,27.299999,1770467752.704193
0.127124,0.307196,1.027972,11.55,-21.98,25.41,1770467752.712163
0.166652,0.314272,1.04066,11.76,-17.360001,30.309999,1770467752.720174
0.20374,0.325496,1.03334,9.87,-14.49,30.73,1770467752.728155
0.233508,0.34892,1.025776,3.78,-11.69,34.580002,1770467752.736137
0.258884,0.386496,1.034072,0.14,-7.49,36.400002,1770467752.744134
0.274988,0.40504,1.054568,-7.56,-1.61,36.400002,1770467752.752172
0.294996,0.42456,1.100196,-16.59,5.6,37.380001,1770467752.760157
0.31232,0.434076,1.14802,-24.08,17.5,38.639999,1770467752.768154
0.314272,0.431392,1.142652,-28.77,28.49,34.02,1770467752.776163
0.299144,0.417728,1.097268,-29.959999,38.290001,30.450001,1770467752.784142
0.276208,0.408456,1.046516,-28.0,48.299999,21.559999,1770467752.792157
0.24888,0.408944,1.020164,-25.549999,54.599998,7.28,1770467752.800294
0.22448,0.406992,1.03456,-26.18,61.110001,-6.44,1770467752.808179
0.164212,0.377712,1.073112,-24.360001,73.779999,-3.78,1770467752.816148
0.088572,0.37576,1.097268,-22.889999,91.769997,6.02,1770467752.824149
0.009028,0.38308,1.109468,-23.1,101.57,10.01,1770467752.832153
-0.054168,0.393572,1.10776,-23.309999,101.779999,15.19,1770467752.840154
-0.112972,0.3843,1.095804,-26.459999,98.279999,12.6,1770467752.848183
-0.165432,0.37088,1.067744,-26.809999,90.230003,15.47,1770467752.856221
-0.211304,0.344772,1.030656,-24.639999,87.150002,15.19,1770467752.864153
-0.2562,0.313784,0.997716,-24.290001,84.629997,20.860001,1770467752.872185
-0.314028,0.293532,0.969412,-24.360001,84.839996,28.280001,1770467752.880201
-0.371124,0.272548,0.942084,-29.190001,84.839996,29.75,1770467752.888148
-0.414556,0.221064,0.91134,-28.98,85.190002,43.889999,1770467752.896157
-0.484828,0.174704,0.867908,-28.0,86.309998,44.380001,1770467752.904253
-0.537776,0.170556,0.84424,-19.67,83.019997,44.939999,1770467752.912143
-0.593896,0.164944,0.84668,-17.219999,75.809998,49.419998,1770467752.920148
-0.638304,0.163968,0.849364,-20.299999,61.669998,50.259998,1770467752.928158
-0.686372,0.125416,0.872788,-28.07,45.709999,56.700001,1770467752.936152
-0.698328,0.05856,0.906948,-35.77,36.82,58.939999,1770467752.944161
-0.76372,-0.135908,0.949648,-40.669998,33.810001,50.330002,1770467752.952186
-0.705892,-0.127368,0.90524,-40.669998,22.82,36.82,1770467752.960177
-0.684176,-0.124928,0.897188,-38.849998,13.79,34.93,1770467752.96815
-0.643184,-0.097356,0.914512,-36.330002,0.21,25.690001,1770467752.976456
-0.598044,-0.062464,0.938912,-31.99,-10.36,29.190001,1770467752.984504
-0.55388,-0.01708,0.949892,-27.23,-20.02,24.290001,1770467752.992173
-0.515084,0.005856,0.94672,-22.540001,-26.879999,19.110001,1770467753.000198
-0.475312,-0.000244,0.93574,-18.200001,-28.209999,26.530001,1770467753.008167
-0.447496,-0.02318,0.917928,-13.93,-26.040001,31.780001,1770467753.016265
-0.421388,-0.035136,0.916464,-7.7,-21.0,37.799999,1770467753.024149
-0.410652,-0.03538,0.920612,-4.97,-18.129999,37.59,1770467753.032129
-0.405284,-0.0183,0.91744,-1.33,-16.1,38.080002,1770467753.040148
-0.39162,0.011468,0.915976,2.52,-18.9,38.080002,1770467753.04816
-0.360632,0.045628,0.925004,7.0,-22.540001,37.869999,1770467753.056157
-0.33184,0.083448,0.931104,8.33,-27.440001,38.990002,1770467753.06423
-0.298168,0.107848,0.926468,9.45,-30.24,34.02,1770467753.072206
-0.280112,0.134688,0.929396,9.24,-30.66,36.82,1770467753.080149
-0.2745,0.180316,0.922076,10.36,-29.75,41.650002,1770467753.088208
-0.282308,0.217404,0.9089,7.77,-27.23,43.889999,1770467753.096157
-0.290604,0.251808,0.910852,5.32,-25.549999,47.740002,1770467753.104144
-0.297436,0.27572,0.909388,5.11,-22.469999,47.040001,1770467753.112154
-0.313296,0.305732,0.902312,3.43,-21.49,46.27,1770467753.120148
-0.33672,0.338428,0.891576,4.41,-21.280001,43.82,1770467753.128144
-0.361852,0.376004,0.875716,0.21,-20.09,42.630001,1770467753.136162
-0.395768,0.399916,0.861076,-0.63,-20.23,41.02,1770467753.144236
-0.41968,0.425292,0.85034,-3.78,-20.440001,31.57,1770467753.152145
-0.424316,0.474336,0.847656,-6.44,-24.219999,36.470001,1770467753.160144
-0.458964,0.463844,0.871568,-9.52,-28.559999,33.669998,1770467753.168144
-0.474336,0.43798,0.90768,-13.02,-34.02,31.85,1770467753.176165
-0.48312,0.39894,0.907436,-12.81,-37.939999,31.43,1770467753.184263
-0.479704,0.371368,0.887672,-13.65,-43.400002,24.709999,1770467753.192145
-0.457744,0.350872,0.915488,-13.02,-47.880001,22.68,1770467753.200145
-0.419924,0.320616,0.998936,-17.219999,-48.580002,15.19,1770467753.208131
-0.367952,0.295484,1.114348,-20.02,-46.41,14.14,1770467753.216144
-0.300852,0.28304,1.19804,-25.129999,-41.650002,10.08,1770467753.224149
-0.237656,0.274988,1.217804,-31.99,-36.470001,6.37,1770467753.232264
-0.174704,0.264252,1.175836,-35.139999,-34.02,1.68,1770467753.240161
-0.127612,0.257664,1.117276,-35.07,-33.950001,2.94,1770467753.248167
-0.086132,0.262544,1.058228,-33.810001,-36.259998,10.92,1770467753.256148
-0.069784,0.270108,1.013576,-31.360001,-35.139999,11.2,1770467753.264173
-0.075396,0.261812,0.98332,-30.450001,-34.23,16.309999,1770467753.27231
-0.05734,0.255468,0.942816,-28.35,-31.92,14.14,1770467753.280143
-0.038552,0.224968,0.92354,-24.57,-28.77,21.91,1770467753.28813
-0.036844,0.160064,0.91378,-21.209999,-24.360001,21.77,1770467753.296156
-0.048556,0.094428,0.889624,-17.08,-16.379999,26.879999,1770467753.304188
-0.066856,0.040992,0.858392,-11.2,-2.45,23.59,1770467753.312153
-0.088816,0.014396,0.86254,-7.21,8.96,24.15,1770467753.320145
-0.108092,0.007808,0.902312,-4.2,18.969999,23.799999,1770467753.32813
-0.128832,0.02074,0.965752,-9.31,29.4,26.040001,1770467753.336152
-0.155428,0.039772,1.028216,-8.68,36.259998,27.370001,1770467753.344154
-0.18178,0.061976,1.087996,-17.639999,39.060001,25.059999,1770467753.352165
-0.201544,0.04758,1.115812,-19.67,35.84,24.01,1770467753.360153
-0.210084,0.001952,1.098976,-22.959999,30.1,28.209999,1770467753.368152
-0.213256,-0.06344,1.058716,-18.620001,21.0,26.18,1770467753.376264
-0.212524,-0.112484,1.027972,-12.88,14.42,30.799999,1770467753.384168
-0.203496,-0.173728,1.034316,-5.67,8.33,30.309999,1770467753.392156
-0.218624,-0.206912,1.039684,-3.22,4.83,34.16,1770467753.400154
-0.30744,-0.284016,1.047004,-0.84,3.22,24.57,1770467753.408152
-0.247904,-0.230092,1.014552,1.19,-0.35,17.85,1770467753.416266
-0.244,-0.188612,1.006744,6.09,-5.81,19.74,1770467753.424153
-0.235948,-0.144448,1.007232,5.39,-12.46,13.93,1770467753.43215
-0.23058,-0.109556,0.990884,4.76,-17.5,17.57,1770467753.440157
-0.222528,-0.091988,0.97722,4.9,-24.92,16.17,1770467753.448182
-0.199348,-0.080276,0.96014,6.51,-31.15,14.84,1770467753.456236
-0.163724,-0.075152,0.964044,9.1,-38.150002,15.26,1770467753.464176
-0.119804,-0.059292,0.994788,10.22,-44.799999,2.87,1770467753.472238
-0.07686,-0.03904,1.030412,7.42,-49.209999,0.0,1770467753.480281
-0.033672,-0.018788,1.054324,7.0,-52.57,-8.4,1770467753.488156
0.007076,0.004148,1.05286,6.58,-53.549999,-13.86,1770467753.496153
0.05124,0.034404,1.048224,7.0,-53.689999,-18.969999,1770467753.504183
0.0915,0.086376,1.058228,8.4,-55.02,-27.02,1770467753.512148
0.136884,0.142984,1.084336,7.91,-55.23,-30.52,1770467753.520149
0.132736,0.165432,1.113616,6.23,-50.889999,-40.950001,1770467753.528182
0.162016,0.167872,1.117032,1.33,-45.990002,-42.209999,1770467753.536234
0.24278,0.174216,1.086532,-1.47,-46.48,-45.779999,1770467753.544157
0.415532,0.24278,1.034072,-0.42,-45.080002,-30.52,1770467753.552158
0.243024,0.309392,1.07116,3.29,-41.23,-15.12,1770467753.560153
0.234484,0.316468,1.039928,-0.42,-32.48,-12.32,1770467753.568151
0.224968,0.312076,0.986004,0.21,-25.9,-7.98,1770467753.576174
0.223748,0.327204,0.938424,4.62,-18.34,0.56,1770467753.584156
0.215696,0.373808,0.915732,10.57,-12.25,-0.77,1770467753.592194
0.228384,0.39284,0.913536,13.79,-8.96,4.2,1770467753.600157
0.249124,0.360632,0.926224,11.9,-5.6,10.43,1770467753.608156
0.27328,0.271572,0.919636,5.67,1.19,22.68,1770467753.616155
0.27084,0.175192,0.875228,3.01,15.89,32.689999,1770467753.624134
0.248636,0.094672,0.847168,6.79,31.43,41.860001,1770467753.632195
0.206424,0.059292,0.882792,10.64,50.259998,43.540001,1770467753.640158
0.140056,0.068808,0.9516,12.46,67.900002,44.450001,1770467753.648157
0.048556,0.078812,1.022116,10.15,83.93,46.130001,1770467753.656159
-0.066368,0.070516,1.068232,2.87,98.629997,45.5,1770467753.664157
-0.1952,0.045872,1.081652,-1.89,106.889999,39.200001,1770467753.672161
-0.291336,0.029524,1.093852,-2.03,105.209999,39.759998,1770467753.68016
-0.366976,-0.003416,1.145092,0.98,92.889999,39.41,1770467753.688152
-0.506544,-0.033916,1.170468,2.03,80.779999,35.209999,1770467753.696152
-0.595604,-0.11956,1.169736,-5.67,74.480003,36.119999,1770467753.704161
-0.633668,-0.150548,1.101904,-8.47,56.07,17.5,1770467753.712331
-0.645868,-0.13054,1.032852,-4.55,33.18,17.99,1770467753.720143
-0.637572,-0.084668,0.9943,-0.14,6.65,14.35,1770467753.728152
-0.599996,-0.047336,0.96258,-2.03,-18.9,16.17,1770467753.736155
-0.527528,-0.015128,0.955748,-1.54,-35.91,16.66,1770467753.74415
-0.446032,0.010004,0.96746,-3.71,-44.52,16.73,1770467753.752183
-0.375272,0.022936,0.972096,-2.45,-48.02,16.799999,1770467753.760153
-0.317688,0.038064,0.971852,-1.82,-46.759998,11.69,1770467753.768155
-0.270108,0.055388,0.953064,-4.41,-42.91,13.02,1770467753.776183
-0.246928,0.07686,0.937936,-3.08,-33.32,17.43,1770467753.784153
-0.234972,0.11346,0.935008,-1.47,-24.360001,13.23,1770467753.792271
-0.243268,0.166164,0.958676,0.21,-13.58,12.81,1770467753.800162
-0.261324,0.227896,1.000644,-0.7,-5.81,11.27,1770467753.80815
-0.294752,0.304512,1.054812,-0.91,1.54,5.88,1770467753.816161
-0.335744,0.367464,1.097024,-3.99,7.28,1.68,1770467753.824156
-0.371856,0.406992,1.117032,-9.03,8.4,-6.65,1770467753.832162
-0.389424,0.394548,1.12118,-12.46,6.65,-13.58,1770467753.840234
-0.395768,0.369172,1.108736,-12.11,-1.33,-21.209999,1770467753.848165
-0.382836,0.3355,1.095804,-14.35,-7.35,-25.059999,1770467753.856192
-0.381372,0.302804,1.046516,-12.32,-14.0,-27.16,1770467753.864183
-0.37576,0.261324,0.90036,-6.65,-22.469999,-35.209999,1770467753.872159
-0.35868,0.264252,0.767624,-0.42,-30.030001,-37.799999,1770467753.88017
-0.336964,0.306952,0.777384,4.41,-37.099998,-36.68,1770467753.888152
-0.308172,0.355996,0.86376,1.12,-43.470001,-38.080002,1770467753.89614
-0.284504,0.344528,0.912072,-6.3,-46.900002,-33.669998,1770467753.904174
-0.245952,0.2684,0.887672,-6.23,-51.799999,-38.919998,1770467753.912277
-0.197396,0.180316,0.868396,-6.58,-54.529999,-39.34,1770467753.92017
-0.13298,0.122732,0.903776,-3.92,-56.700001,-36.189999,1770467753.928149
-0.057584,0.095404,0.987712,-6.02,-58.450001,-35.209999,1770467753.936148
0.024644,0.077836,1.065792,-10.22,-59.009998,-27.23,1770467753.944209
0.077592,0.061732,1.131184,-13.23,-58.380001,-24.57,1770467753.95215
0.126392,0.03782,1.168028,-19.879999,-54.740002,-17.360001,1770467753.960154
0.188856,0.01952,1.193892,-19.18,-49.07,-15.61,1770467753.968152
0.271084,0.00244,1.218048,-13.93,-44.869999,-1.89,1770467753.976709
0.299632,0.003904,1.232932,-8.75,-37.450001,9.87,1770467753.984954
0.284016,-0.011224,1.22122,-7.98,-29.75,17.99,1770467753.992173
0.255468,-0.018056,1.180472,-7.91,-17.85,26.110001,1770467754.000184
0.207888,-0.040016,1.126304,-12.11,-6.44,29.75,1770467754.008163
0.154696,-0.065148,1.068232,-17.08,3.15,33.389999,1770467754.016172
0.094428,-0.097112,1.015284,-20.02,10.78,33.040001,1770467754.024227
0.055144,-0.118584,0.966972,-22.26,14.0,32.970001,1770467754.032137
0.022448,-0.131028,0.934764,-28.209999,13.93,30.450001,1770467754.04014
-0.011956,-0.137616,0.893528,-31.360001,9.66,26.389999,1770467754.048159
-0.022204,-0.153232,0.853024,-29.68,3.64,30.52,1770467754.056336
-0.007564,-0.166896,0.826672,-28.35,-7.28,30.1,1770467754.064152
0.012444,-0.171044,0.835456,-24.360001,-17.219999,23.450001,1770467754.072154
0.060024,-0.171776,0.872056,-20.860001,-23.59,19.110001,1770467754.080162
0.119316,-0.152256,0.937204,-17.92,-24.639999,12.39,1770467754.088179
0.202764,-0.13176,1.016016,-20.860001,-26.6,8.54,1770467754.096178
0.2867,-0.119316,1.068232,-21.629999,-27.09,2.94,1770467754.104276
0.359656,-0.089304,1.106784,-20.440001,-26.530001,-2.1,1770467754.112142
0.441396,-0.057584,1.116788,-18.48,-29.540001,4.97,1770467754.120143
0.468236,-0.032696,1.082872,-16.870001,-31.290001,10.22,1770467754.128155
0.446764,-0.001464,0.970144,-12.81,-32.900002,15.4,1770467754.136147
0.379908,0.004148,0.810568,-1.82,-25.620001,17.85,1770467754.14414
0.305488,0.005612,0.62952,17.43,-11.9,16.030001,1770467754.152242
0.2623,-0.011468,0.535336,35.0,5.95,19.110001,1770467754.160179
0.232288,-0.011224,0.556076,52.849998,29.469999,23.030001,1770467754.168144
0.2501,0.046116,0.66856,62.580002,50.610001,42.77,1770467754.176172
0.210816,0.088816,0.858392,64.400002,70.279999,52.080002,1770467754.184181
0.16958,0.125904,1.020896,55.16,82.32,55.580002,1770467754.192233
0.10492,0.167384,1.13582,48.23,89.389999,60.759998,1770467754.200215
0.01098,0.1952,1.184864,38.779999,94.080002,62.299999,1770467754.208169
-0.118828,0.213012,1.214144,30.59,100.730003,63.98,1770467754.216256
-0.249124,0.22326,1.245132,20.65,109.620003,63.77,1770467754.224133
-0.416264,0.24644,1.266848,15.33,121.169998,59.849998,1770467754.232145
-0.50386,0.247904,1.253672,6.79,123.760002,60.619999,1770467754.240139
-0.609268,0.249124,1.215364,-2.45,117.18,61.110001,1770467754.248146
-0.704672,0.221064,1.150704,-10.99,105.139999,55.93,1770467754.256174
-0.75518,0.191052,1.067256,-17.99,87.849998,48.439999,1770467754.264138
-0.759572,0.205692,0.982588,-21.42,64.68,43.540001,1770467754.272174
-0.7259,0.24888,0.923052,-19.879999,38.290001,41.790001,1770467754.280155
-0.663924,0.30622,0.887428,-21.98,7.21,40.32,1770467754.28813
-0.603168,0.346236,0.870348,-22.68,-24.92,33.459999,1770467754.296134
-0.530212,0.360388,0.857416,-22.68,-51.029999,39.900002,1770467754.304158
-0.456036,0.360388,0.834724,-22.889999,-69.790001,31.15,1770467754.31217
-0.370636,0.343552,0.787388,-24.709999,-79.800003,33.880001,1770467754.320275
-0.304268,0.318176,0.727608,-19.459999,-83.510002,32.900002,1770467754.32815
-0.247416,0.312564,0.685884,-16.030001,-80.709999,40.32,1770467754.336151
-0.211304,0.3172,0.699304,-8.54,-73.779999,39.970001,1770467754.344134
-0.18544,0.321104,0.777872,-5.11,-63.91,37.939999,1770467754.352196
-0.17812,0.321592,0.890844,-3.22,-51.029999,32.130001,1770467754.36017
-0.201056,0.31476,0.932568,-0.35,-38.849998,26.809999,1770467754.368152
-0.244488,0.305976,0.912804,1.75,-29.540001,19.18,1770467754.376161
-0.293532,0.299876,0.897188,6.02,-22.68,13.02,1770467754.384304
-0.325252,0.283528,0.936228,7.56,-21.49,-0.91,1770467754.392129
-0.349896,0.252296,1.033828,4.2,-21.35,-7.49,1770467754.400148
-0.3599,0.218136,1.116788,2.87,-25.690001,-17.57,1770467754.408156
-0.354532,0.160796,1.159976,-1.12,-37.450001,-26.67,1770467754.416148
-0.325252,0.078568,1.243668,0.42,-48.790001,-27.93,1770467754.424149
-0.260836,0.00976,1.392508,3.08,-59.849998,-37.869999,1770467754.432158
-0.147132,-0.045628,1.560136,3.71,-65.800003,-41.299999,1770467754.440219
-0.02806,-0.061244,1.68848,1.89,-68.879997,-41.509998,1770467754.448165
0.07686,-0.047336,1.759972,-5.11,-68.669998,-41.580002,1770467754.456153
0.205692,-0.061488,1.75802,-20.299999,-68.459999,-37.52,1770467754.464148
0.316712,-0.083204,1.651148,-34.09,-70.559998,-28.84,1770467754.472156
0.38674,-0.086132,1.487424,-47.740002,-72.099998,-20.51,1770467754.480242
0.406748,-0.080032,1.3237,-53.34,-64.82,-9.31,1770467754.488159
0.410408,-0.069784,1.181204,-57.540001,-47.950001,5.18,1770467754.496135
0.396744,-0.056608,1.058228,-60.970001,-24.85,11.9,1770467754.504239
0.365268,-0.036112,0.939644,-63.07,3.29,19.67,1770467754.512183
0.303292,-0.007564,0.80154,-62.23,35.630001,18.83,1770467754.520179
0.255712,0.132248,0.651968,-50.68,58.59,41.299999,1770467754.528146
0.16348,0.167384,0.557784,-46.48,77.07,47.040001,1770467754.536136
0.072956,0.2196,0.468236,-43.119999,89.739998,55.09,1770467754.544155
0.005368,0.26596,0.423096,-33.740002,97.510002,63.98,1770467754.552197
-0.05978,0.26962,0.431636,-29.33,98.699997,70.699997,1770467754.560167
-0.10126,0.252784,0.448228,-25.969999,96.459999,79.379997,1770467754.568159
-0.12932,0.223992,0.48068,-19.32,88.129997,81.059998,1770467754.576195
-0.14152,0.202764,0.50264,-12.53,76.019997,84.910004,1770467754.584166
-0.14762,0.186904,0.510692,-6.02,63.0,83.089996,1770467754.592137
-0.149572,0.147864,0.4941,1.47,47.040001,83.650002,1770467754.600154
-0.134688,0.089304,0.481412,11.76,29.75,80.709999,1770467754.60815
-0.089304,0.039772,0.510692,20.09,12.88,69.860001,1770467754.616155
-0.047092,-0.000976,0.595848,26.32,2.52,68.669998,1770467754.62418
0.017812,-0.049532,0.687592,29.469999,-2.38,58.73,1770467754.632187
0.078324,-0.1098,0.796416,28.77,-0.14,55.790001,1770467754.640146
0.150548,-0.195688,0.970876,27.65,6.16,57.68,1770467754.648184
0.210084,-0.25132,1.19194,22.889999,15.12,53.689999,1770467754.656155
0.20374,-0.499956,1.4762,9.94,30.73,48.16,1770467754.664307
0.093696,-0.633912,1.589904,-7.98,57.119999,33.810001,1770467754.672153
0.102968,-0.75884,1.58722,-15.12,74.059998,28.139999,1770467754.680167
0.035624,-0.792268,1.569652,-7.91,88.269997,28.42,1770467754.688161
-0.089792,-0.745664,1.565016,1.33,103.739998,32.27,1770467754.696136
-0.25986,-0.621712,1.567212,14.77,122.43,33.32,1770467754.704167
-0.47214,-0.465064,1.561844,16.66,143.080002,25.48,1770467754.712273
-0.654652,-0.284992,1.525732,14.0,158.059998,13.02,1770467754.720149
-0.805932,-0.089304,1.492548,10.57,158.970001,-0.42,1770467754.728148
-0.90158,0.110288,1.414956,4.55,147.699997,-13.37,1770467754.73615
-0.936472,0.290604,1.318088,-3.36,120.260002,-18.83,1770467754.744228
-0.919392,0.396744,1.198772,-9.03,82.599998,-28.84,1770467754.752319
-0.853268,0.41724,1.084824,-15.82,42.0,-29.610001,1770467754.760164
-0.745908,0.38918,0.958676,-14.98,1.96,-25.48,1770467754.768157
-0.623908,0.36234,0.8052,-15.54,-27.440001,-24.360001,1770467754.776149
-0.496296,0.330376,0.678808,-12.67,-48.509998,-23.309999,1770467754.784142
-0.384056,0.341112,0.55876,-5.81,-64.889999,-29.82,1770467754.792137
-0.30622,0.370392,0.51362,0.84,-72.029999,-31.639999,1770467754.800141
-0.178364,0.454816,0.378688,11.2,-75.389999,-15.12,1770467754.808153
-0.1098,0.478728,0.312808,15.33,-77.980003,-3.22,1770467754.816162
-0.07076,0.463356,0.240096,15.19,-84.209999,12.81,1770467754.824165
-0.032696,0.429928,0.177388,10.92,-87.43,15.19,1770467754.832265
0.00854,0.377956,0.152744,7.14,-90.230003,21.139999,1770467754.840152
0.052216,0.322568,0.183488,7.07,-86.800003,23.940001,1770467754.848154
0.116388,0.300608,0.251808,5.32,-76.440002,29.120001,1770467754.856142
0.156404,0.295728,0.373564,2.45,-61.25,32.27,1770467754.864163
0.168116,0.293288,0.555832,-2.45,-33.669998,28.49,1770467754.872146
0.162504,0.269132,0.7564,-13.58,3.99,20.790001,1770467754.880376
0.134444,0.211304,0.988444,-21.209999,46.900002,13.51,1770467754.888161
0.054656,0.125172,1.245132,-22.540001,90.790001,12.04,1770467754.896177
-0.099064,-0.0061,1.494988,-12.18,132.300003,11.76,1770467754.904153
-0.302316,-0.121024,1.85806,2.38,164.289993,17.43,1770467754.912153
-0.504836,-0.214476,2.148908,24.08,163.589996,32.900002,1770467754.920163
-0.985272,-0.411384,2.248948,18.969999,156.729996,43.330002,1770467754.928374
-1.07726,-0.48068,2.019588,6.09,129.5,24.360001,1770467754.936141
-1.169248,-0.63806,1.91052,-4.48,83.089996,19.110001,1770467754.944146
-1.18584,-0.731512,1.77144,-13.65,31.08,7.42,1770467754.952148
-1.125328,-0.722972,1.588684,-22.120001,-13.58,-10.64,1770467754.960149
-0.97356,-0.708576,1.4213,-35.560001,-46.48,-20.09,1770467754.968166
-0.770308,-0.5917,1.25782,-45.360001,-67.129997,-30.379999,1770467754.976245
-0.545584,-0.437004,1.100928,-49.209999,-79.870003,-25.83,1770467754.984298
-0.358924,-0.232776,0.941108,-45.080002,-90.580002,-23.66,1770467754.992189
-0.213988,-0.029036,0.824476,-40.529999,-100.870003,-14.7,1770467755.00015
-0.085888,0.118584,0.752252,-35.209999,-107.099998,-2.59,1770467755.008173
-0.020984,0.149328,0.708576,-35.419998,-109.760002,2.59,1770467755.016152
-0.005368,0.192028,0.607072,-37.240002,-102.129997,9.31,1770467755.024153
0.454816,0.561444,0.367952,-31.43,-117.459999,31.57,1770467755.03227
0.208864,0.389912,0.372832,-23.799999,-119.0,53.759998,1770467755.040151
0.221064,0.373564,0.272304,-25.9,-119.209999,63.560001,1770467755.048157
0.2135,0.310612,0.167872,-28.0,-112.139999,70.279999,1770467755.056162
0.209108,0.276452,0.057584,-20.02,-101.360001,73.779999,1770467755.064244
0.188368,0.24522,-0.022204,-10.57,-81.550003,74.410004,1770467755.072174
0.172752,0.25132,-0.054412,1.54,-56.700001,76.019997,1770467755.080259
0.179096,0.251076,0.0061,12.53,-28.700001,70.07,1770467755.088145
0.213256,0.235948,0.142496,17.99,3.5,71.540001,1770467755.096127
0.249124,0.243268,0.328668,22.33,38.009998,62.09,1770467755.10415
0.293532,0.280844,0.573156,21.209999,74.620003,50.400002,1770467755.11218
0.332816,0.304024,0.833748,20.23,107.029999,37.939999,1770467755.120246
0.325008,0.28548,1.025776,16.030001,134.050003,24.639999,1770467755.128139
0.258884,0.22448,1.192916,9.45,158.830002,12.11,1770467755.13614
0.157136,0.12078,1.365912,2.87,178.149994,5.88,1770467755.144146
0.035868,-0.021716,1.60064,-5.74,186.339996,-2.66,1770467755.152136
-0.118584,-0.140544,1.967128,-13.44,180.179993,-5.11,1770467755.160179
-0.31598,-0.325252,2.297992,-3.15,163.729996,1.47,1770467755.168351
-0.685152,-0.884744,2.623,-6.58,145.949997,2.59,1770467755.176138
-0.894748,-0.772016,2.29238,-11.97,119.629997,-13.58,1770467755.184156
-0.990884,-0.828868,1.991772,-12.81,96.739998,-15.05,1770467755.192129
-1.052128,-0.801784,1.669204,-18.76,81.830002,-17.639999,1770467755.200172
-1.07604,-0.692472,1.381772,-23.66,70.489998,-22.75,1770467755.208144
-1.031144,-0.50386,1.134112,-29.540001,59.080002,-34.650002,1770467755.216145
-0.965264,-0.302316,0.96746,-34.439999,43.82,-41.369999,1770467755.224147
-0.88206,-0.132248,0.900116,-35.139999,26.950001,-53.41,1770467755.232223
-0.804956,-0.010492,0.881328,-36.330002,13.3,-56.700001,1770467755.240152
-0.72102,0.063684,0.834724,-37.240002,-0.7,-55.16,1770467755.248141
-0.639524,0.120048,0.755668,-41.369999,-14.35,-52.43,1770467755.256165
-0.558516,0.166408,0.643672,-42.630001,-29.469999,-48.650002,1770467755.264149
-0.472872,0.196664,0.5368,-40.529999,-45.639999,-47.950001,1770467755.272194
-0.38064,0.20374,0.464332,-36.68,-63.209999,-43.540001,1770467755.28027
-0.2928,0.16714,0.423096,-30.870001,-79.239998,-41.09,1770467755.288132
-0.251564,0.15372,0.383812,-22.33,-87.080002,-39.900002,1770467755.296131
-0.200568,0.072712,0.339892,-17.01,-87.709999,-27.440001,1770467755.304162
-0.082716,0.110288,0.28182,-4.69,-82.32,-5.81,1770467755.312219
-0.088084,0.067588,0.291824,1.12,-74.339996,14.14,1770467755.320157
-0.066368,0.039284,0.328668,11.2,-60.759998,25.48,1770467755.328152
-0.065148,0.034404,0.37454,14.28,-42.139999,44.799999,1770467755.336154
-0.09028,0.030256,0.443592,20.370001,-21.559999,55.93,1770467755.344253
-0.152988,0.006588,0.517036,21.139999,3.99,64.120003,1770467755.352149
-0.227408,-0.024888,0.603168,27.440001,28.42,71.190002,1770467755.360143
-0.315736,-0.058316,0.732488,32.759998,47.18,73.43,1770467755.368145
-0.48556,-0.099796,0.910364,36.540001,67.620003,67.690002,1770467755.376147
-0.70272,-0.259372,1.098732,38.639999,79.940002,45.220001,1770467755.384163
-0.924272,-0.440908,1.236592,50.400002,85.190002,40.32,1770467755.392142
-1.1407,-0.605364,1.321016,52.220001,76.510002,38.080002,1770467755.400146
-1.357616,-0.801052,1.432768,47.950001,53.759998,30.66,1770467755.408211
-1.504016,-0.991128,1.5616,40.25,28.0,20.790001,1770467755.416151
-1.418616,-1.044808,1.626748,38.990002,-8.47,10.71,1770467755.424152
-1.181204,-0.977464,1.608448,39.34,-59.43,-0.21,1770467755.432201
-0.947208,-0.795684,1.5738,36.75,-103.110001,3.29,1770467755.440158
-0.716628,-0.573644,1.561112,31.85,-135.309998,-1.26,1770467755.448152
-0.496296,-0.323544,1.555012,17.92,-150.429993,-1.33,1770467755.456153
-0.314028,-0.083204,1.524268,4.48,-151.130005,0.98,1770467755.464135
-0.145424,0.107604,1.445212,-12.67,-145.320007,2.24,1770467755.472159
-0.006588,0.242536,1.292468,-31.639999,-135.309998,6.72,1770467755.480423
0.036112,0.254004,1.125572,-46.900002,-125.300003,6.02,1770467755.48817
0.066856,0.293532,0.951844,-51.169998,-111.580002,-7.07,1770467755.49614
0.391132,0.566812,0.756888,-23.030001,-111.300003,15.4,1770467755.50473
0.328668,0.522648,0.747128,-20.09,-108.43,36.959999,1770467755.512194
0.332572,0.518744,0.639036,-17.85,-95.900002,58.380001,1770467755.520339
0.308416,0.5063,0.467992,-12.25,-83.370003,56.700001,1770467755.528141
0.259372,0.477752,0.270108,2.31,-66.989998,66.919998,1770467755.536135
0.215696,0.414068,0.111996,16.799999,-48.650002,64.82,1770467755.544148
0.18178,0.357216,0.007808,32.34,-28.139999,57.82,1770467755.55215
0.158112,0.324032,-0.021228,43.540001,-4.27,59.5,1770467755.56018
0.147376,0.306464,-0.006344,52.57,17.5,55.439999,1770467755.568177
0.151768,0.287432,0.032696,52.43,37.73,55.439999,1770467755.576254
0.164944,0.282064,0.127368,49.209999,52.639999,49.419998,1770467755.584159
0.194224,0.293776,0.303048,41.02,67.690002,41.650002,1770467755.592145
0.20374,0.311832,0.48068,21.42,82.529999,34.580002,1770467755.60015
0.196176,0.288896,0.598776,7.21,95.269997,27.860001,1770467755.608256
0.160796,0.232044,0.726876,-5.25,106.610001,13.02,1770467755.61618
0.097356,0.167872,0.915,-10.64,116.199997,-2.03,1770467755.624153
0.033672,0.050508,1.167052,-18.129999,132.720001,-11.13,1770467755.632153
-0.010004,-0.098088,1.481812,-22.26,147.630005,-13.86,1770467755.640156
-0.075396,-0.268888,1.895148,-13.44,153.369995,-9.45,1770467755.648219
-0.017324,-0.89304,2.431948,-7.63,144.690002,17.780001,1770467755.65616
-0.63928,-1.241228,2.66204,0.0,160.789993,-11.13,1770467755.664176
-0.754448,-1.343464,2.649596,13.79,145.600006,-18.41,1770467755.672159
-0.892796,-1.187792,2.415356,24.85,121.169998,0.0,1770467755.68016
-0.938668,-0.920856,2.030812,24.08,98.839996,-7.63,1770467755.688165
-0.937936,-0.681248,1.628456,18.76,84.629997,-1.12,1770467755.696137
-0.913292,-0.471896,1.330776,13.79,73.290001,-8.96,1770467755.704157
-0.890112,-0.282064,1.136064,10.22,71.610001,-17.360001,1770467755.712251
-0.87108,-0.120048,1.026996,7.14,73.43,-29.610001,1770467755.720155
-0.87108,0.028304,0.956968,4.13,76.160004,-40.32,1770467755.728147
-0.881572,0.154208,0.879132,-4.34,74.480003,-40.529999,1770467755.736148
-0.890356,0.23912,0.798612,-10.92,65.379997,-42.279999,1770467755.74426
-0.876936,0.291092,0.697108,-19.32,47.810001,-44.310001,1770467755.752147
-0.828136,0.326228,0.584136,-21.35,23.870001,-46.689999,1770467755.760181
-0.755424,0.33672,0.488488,-18.34,-2.59,-47.810001,1770467755.768153
-0.670024,0.346236,0.392108,-13.3,-30.24,-46.34,1770467755.776155
-0.546072,0.312076,0.35502,-1.75,-55.860001,-45.220001,1770467755.784164
-0.44408,0.262056,0.31232,6.79,-79.449997,-48.369999,1770467755.792153
-0.437736,0.408944,0.173484,25.41,-80.080002,-42.98,1770467755.800159
-0.277916,0.417972,0.143716,36.330002,-101.779999,-1.47,1770467755.80817
-0.237412,0.418216,0.12322,40.18,-110.459999,8.54,1770467755.816166
-0.191784,0.40992,0.121756,42.349998,-117.110001,29.33,1770467755.824158
-0.155672,0.399184,0.151524,45.220001,-114.449997,32.200001,1770467755.832266
-0.133712,0.371368,0.206912,46.970001,-102.480003,48.580002,1770467755.840181
-0.113704,0.321836,0.287432,55.23,-83.93,54.040001,1770467755.848153
-0.099064,0.249856,0.430904,59.5,-55.02,56.77,1770467755.856156
-0.101016,0.177144,0.628544,65.239998,-20.23,54.669998,1770467755.864159
-0.149328,0.103212,0.874496,64.190002,20.299999,38.150002,1770467755.872151
-0.238876,0.03904,1.138992,67.970001,63.07,32.549999,1770467755.880153
-0.431636,-0.008296,1.433012,71.959999,95.059998,20.299999,1770467755.888175
-0.798124,-0.073932,1.688724,72.099998,115.919998,22.469999,1770467755.896181
-1.260748,-0.236192,1.818776,64.889999,120.400002,-0.77,1770467755.904175
-1.520608,-0.359656,1.799256,57.959999,99.050003,-18.83,1770467755.912156
-1.518656,-0.516304,1.802428,45.990002,49.419998,-16.52,1770467755.920164
-1.451556,-0.650748,1.733864,44.169998,-20.16,-12.88,1770467755.928153
-1.328824,-0.713944,1.72874,34.790001,-86.379997,-16.940001,1770467755.936207
-1.11752,-0.65758,1.742404,26.459999,-136.779999,-16.59,1770467755.94419
-0.83326,-0.53314,1.735328,13.09,-168.910004,-28.559999,1770467755.952151
-0.530944,-0.346968,1.689456,0.21,-184.100006,-31.01,1770467755.960157
-0.256688,-0.16104,1.591612,-10.43,-186.199997,-34.790001,1770467755.968219
-0.04148,-0.014884,1.4213,-18.34,-178.850006,-25.9,1770467755.976233
0.106384,0.102236,1.17974,-21.209999,-164.990005,-19.879999,1770467755.985777
0.119804,0.12932,1.035536,-23.799999,-144.130005,-20.93,1770467755.992316
0.158844,0.176168,0.878156,-28.0,-121.589996,-27.51,1770467756.000151
0.391132,0.508252,0.695644,-10.64,-123.620003,-1.89,1770467756.008174
0.404552,0.52094,0.656116,-7.77,-112.629997,3.71,1770467756.016157
0.399184,0.576328,0.527772,-7.42,-99.470001,22.120001,1770467756.024277
0.392596,0.568276,0.378688,-8.33,-87.010002,15.4,1770467756.032148
0.365268,0.540948,0.217892,-10.43,-70.839996,19.530001,1770467756.040152
0.3233,0.488,0.066124,-5.81,-53.549999,18.200001,1770467756.048153
0.283528,0.431148,-0.06588,-3.43,-34.09,16.309999,1770467756.056152
0.260836,0.374296,-0.142008,6.02,-9.8,12.04,1770467756.064153
0.27572,0.337696,-0.123952,19.040001,16.73,0.7,1770467756.072181
0.313296,0.368684,0.019276,29.190001,44.869999,-4.76,1770467756.080172
0.359656,0.414312,0.257664,36.959999,77.489998,-13.58,1770467756.088185
0.396012,0.465796,0.525332,32.970001,115.290001,-21.42,1770467756.096128
0.404796,0.49044,0.740784,25.690001,152.600006,-26.459999,1770467756.104143
0.385764,0.450424,0.856928,15.33,185.919998,-31.99,1770467756.112143
0.327936,0.389668,0.951844,4.2,210.770004,-30.309999,1770467756.120138
0.221796,0.34282,1.124108,-4.48,227.710007,-23.309999,1770467756.128161
0.061488,0.274256,1.356884,-18.76,235.899994,-22.540001,1770467756.136144
-0.156892,0.09638,1.574044,-22.82,236.949997,-27.790001,1770467756.144142
-0.357948,-0.117608,1.74948,-15.68,224.070007,-20.440001,1770467756.152144
-0.63562,-0.287188,1.954684,8.68,193.619995,-3.36,1770467756.160144
-1.092388,-0.6832,2.022028,10.15,180.25,-11.76,1770467756.168162
-1.14314,-0.665144,1.774856,27.790001,136.360001,-2.59,1770467756.176281
-1.189012,-0.66246,1.524024,34.580002,94.639999,-12.11,1770467756.184161
-1.181936,-0.606584,1.300032,35.209999,58.029999,-28.629999,1770467756.192147
-1.121912,-0.520696,1.108736,27.65,28.49,-38.5,1770467756.200134
-1.008208,-0.42944,0.983564,21.559999,6.44,-58.66,1770467756.208145
-0.88816,-0.348432,0.915976,20.299999,-7.07,-71.120003,1770467756.216143
-0.790804,-0.252784,0.877668,27.58,-17.57,-86.309998,1770467756.224147
-0.710772,-0.136884,0.82472,32.200001,-25.620001,-97.790001,1770467756.232191
-0.623908,-0.006832,0.755912,30.309999,-32.200001,-107.870003,1770467756.240306
-0.536068,0.12932,0.691496,26.459999,-39.27,-118.720001,1770467756.24814
-0.448716,0.244488,0.618784,16.1,-43.610001,-123.690002,1770467756.256491
-0.363072,0.314272,0.55632,9.87,-47.810001,-123.760002,1770467756.264178
-0.30866,0.322568,0.519232,3.64,-47.950001,-122.639999,1770467756.272201
-0.218136,0.392108,0.463844,5.53,-42.98,-116.480003,1770467756.280168
-0.17568,0.468236,0.426024,12.74,-44.029999,-101.43,1770467756.288147
-0.115168,0.520696,0.387472,20.860001,-50.400002,-84.839996,1770467756.296133
-0.099308,0.561688,0.360876,29.959999,-56.98,-67.830002,1770467756.304146
-0.089792,0.557784,0.383324,38.290001,-54.669998,-64.400002,1770467756.312212
-0.049044,0.547292,0.466528,45.009998,-40.529999,-54.950001,1770467756.32015
-0.005124,0.526796,0.61854,55.509998,-14.7,-47.110001,1770467756.328327
0.030012,0.484096,0.816912,59.639999,14.21,-42.279999,1770467756.336149
0.04026,0.421876,1.034804,62.509998,41.439999,-36.610001,1770467756.34415
-0.00122,0.29768,1.270996,61.32,62.09,-36.470001,1770467756.352145
-0.11712,0.1342,1.525244,66.639999,77.419998,-33.18,1770467756.36015
-0.331352,0.025376,1.761192,80.010002,87.150002,-35.560001,1770467756.368153
-0.553392,-0.014884,1.963712,85.75,87.43,-28.280001,1770467756.376244
-0.742248,-0.068808,2.080344,86.519997,67.059998,-28.91,1770467756.384393
-1.021384,-0.347212,2.114504,70.0,35.07,-38.57,1770467756.392255
-0.984296,-0.364048,1.998848,60.759998,-12.11,-56.91,1770467756.400156
-0.963556,-0.408212,1.905152,52.849998,-62.02,-67.199997,1770467756.408152
-0.86498,-0.408944,1.822192,44.66,-96.599998,-75.389999,1770467756.416152
-0.704916,-0.376736,1.747772,36.889999,-120.470001,-82.739998,1770467756.424148
-0.520208,-0.317688,1.663836,28.629999,-131.880005,-93.029999,1770467756.432151
-0.331596,-0.260836,1.577216,19.459999,-132.229996,-98.0,1770467756.440174
-0.185196,-0.155916,1.476444,17.99,-126.139999,-101.360001,1770467756.448155
-0.096624,-0.025376,1.379332,13.51,-111.860001,-101.150002,1770467756.456193
-0.051484,0.137372,1.260992,9.45,-100.099998,-97.440002,1770467756.464155
-0.04758,0.276208,1.086044,1.47,-89.879997,-95.760002,1770467756.472224
-0.079544,0.315492,0.863516,-8.54,-86.099998,-103.110001,1770467756.480164
-0.048068,0.38186,0.61732,-10.01,-82.669998,-102.550003,1770467756.488206
0.235216,0.611952,0.372588,-7.63,-107.239998,-80.639999,1770467756.496136
0.078324,0.49654,0.264008,1.47,-120.120003,-63.77,1770467756.50416
0.09638,0.44896,0.13176,-2.1,-130.619995,-56.349998,1770467756.512194
0.111508,0.438468,0.030988,0.0,-135.520004,-50.119999,1770467756.520198
0.139568,0.406504,-0.007564,1.26,-133.419998,-43.959999,1770467756.528148
0.180804,0.370148,-0.013176,1.89,-126.559998,-45.990002,1770467756.536135
0.20984,0.351848,-0.01464,5.32,-109.550003,-46.130001,1770467756.544176
0.229116,0.301096,-0.008052,14.84,-85.82,-48.369999,1770467756.552152
0.274012,0.262544,0.069052,24.99,-54.389999,-54.880001,1770467756.560152
0.332816,0.295972,0.233264,39.970001,-16.030001,-59.360001,1770467756.568148
0.414556,0.35746,0.5246,45.009998,19.74,-61.18,1770467756.576145
0.487512,0.456036,0.842044,40.529999,51.59,-59.009998,1770467756.584151
0.53192,0.543144,1.064572,28.559999,83.650002,-55.439999,1770467756.592288
0.538752,0.526796,1.181448,10.78,101.080002,-42.98,1770467756.60015
0.517768,0.465796,1.365912,-11.34,103.949997,-23.66,1770467756.608149
0.475312,0.345016,1.56282,-38.57,101.010002,-7.49,1770467756.616151
0.314272,0.098332,1.703608,-44.52,108.150002,4.41,1770467756.62415
0.119804,-0.172508,1.755336,-33.459999,124.040001,-3.01,1770467756.632157
-0.037332,-0.301828,1.849032,-4.34,147.630005,4.48,1770467756.640233
-0.16958,-0.655384,1.985916,17.43,158.130005,29.68,1770467756.648175
-0.585356,-0.689056,1.98738,21.0,165.830002,8.89,1770467756.656151
-0.75518,-0.652456,1.769732,24.08,152.949997,2.94,1770467756.664217
-0.89914,-0.571692,1.515484,19.459999,137.059998,-9.17,1770467756.672157
-1.044076,-0.49288,1.31638,10.78,114.379997,-16.52,1770467756.680161
-1.128744,-0.391864,1.155096,4.9,83.510002,-27.02,1770467756.688186
-1.150704,-0.273036,0.999668,-2.38,51.310001,-40.25,1770467756.696133
-1.125572,-0.148596,0.859124,-8.12,17.57,-46.34,1770467756.70417
-1.04066,-0.05978,0.739808,-11.55,-11.06,-63.98,1770467756.712252
-0.920856,0.020984,0.627324,-8.54,-36.049999,-74.410004,1770467756.720181
-0.795928,0.088084,0.514352,-4.2,-52.009998,-84.07,1770467756.728153
-0.669292,0.14396,0.421388,-0.14,-63.560001,-92.330002,1770467756.736195
-0.544364,0.20496,0.33306,6.86,-74.410004,-97.089996,1770467756.744156
-0.447984,0.269864,0.2379,13.51,-86.800003,-101.220001,1770467756.752156
-0.309148,0.238144,0.18666,10.57,-106.68,-105.139999,1770467756.760232
-0.290848,0.379176,0.113704,14.77,-121.449997,-117.18,1770467756.768152
-0.142252,0.470188,0.061732,19.459999,-132.300003,-96.599998,1770467756.776148
0.102724,0.576084,0.087596,27.09,-159.110001,-60.48,1770467756.784146
0.08296,0.584868,0.190076,35.91,-176.960007,-28.98,1770467756.792279
0.15006,0.608048,0.338428,36.959999,-174.229996,-10.43,1770467756.80016
0.226432,0.681492,0.528748,37.169998,-154.979996,-0.77,1770467756.808152
0.332084,0.736148,0.770064,35.419998,-122.010002,3.01,1770467756.816143
0.425048,0.793,1.0065,30.870001,-77.769997,4.48,1770467756.824154
0.473848,0.77104,1.183888,24.01,-29.68,3.43,1770467756.832173
0.44042,0.682224,1.360788,11.9,25.76,4.2,1770467756.840182
0.303292,0.55266,1.617476,3.29,82.599998,-0.77,1770467756.848151
0.043432,0.382348,1.897344,3.99,143.080002,-14.91,1770467756.85616
-0.282308,0.066124,2.128412,16.450001,200.619995,-27.16,1770467756.864251
-0.4758,-0.11834,2.19478,37.869999,207.899994,-15.68,1770467756.872181
-0.665632,-0.1891,2.23138,44.169998,154.839996,-4.69,1770467756.880198
-1.196088,-0.492392,2.222108,25.9,100.309998,-16.17,1770467756.888207
-1.13338,-0.43188,1.940288,8.33,31.15,-25.129999,1770467756.896189
-1.131672,-0.459452,1.656272,-3.57,-31.92,-28.84,1770467756.90424
-0.981124,-0.449448,1.42618,-15.19,-84.980003,-35.279999,1770467756.912163
-0.787388,-0.423096,1.253428,-22.75,-119.209999,-41.369999,1770467756.920155
-0.582916,-0.360144,1.112152,-21.98,-135.660004,-43.68,1770467756.928151
-0.377956,-0.295484,0.986492,-22.75,-141.259995,-45.360001,1770467756.936149
-0.21838,-0.207156,0.848144,-14.28,-141.330002,-40.880001,1770467756.944189
-0.080276,-0.091012,0.719068,-12.53,-137.759995,-35.419998,1770467756.952149
0.031964,0.001952,0.598044,-11.97,-134.679993,-27.719999,1770467756.960156
0.067832,0.034648,0.482876,-15.05,-127.82,-19.040001,1770467756.968152
0.25986,-0.1281,0.36722,-20.09,-126.699997,-14.35,1770467756.976753
0.461892,0.153964,0.166652,-13.72,-127.260002,2.8,1770467756.984275
0.25864,0.116632,0.078568,6.23,-117.32,20.860001,1770467756.992178
0.244488,0.128588,0.01098,14.77,-105.559998,29.610001,1770467757.000153
0.221796,0.142252,-0.023912,26.67,-87.150002,36.610001,1770467757.008386
0.197396,0.170068,-0.03782,33.32,-60.34,37.169998,1770467757.016149
0.182268,0.2013,0.001464,38.639999,-30.379999,42.0,1770467757.024217
0.183244,0.2257,0.116876,35.77,2.52,35.630001,1770467757.03214
0.211304,0.305732,0.284504,28.98,33.459999,29.75,1770467757.040152
0.254248,0.331596,0.51972,19.32,63.84,23.73,1770467757.048156
0.273524,0.385276,0.762256,7.56,94.709999,10.08,1770467757.056157
0.273524,0.414556,0.996984,5.46,129.570007,-1.68,1770467757.064195
0.257176,0.408212,1.231712,8.54,158.059998,-18.129999,1770467757.07216
0.167872,0.37454,1.441796,10.01,171.5,-24.360001,1770467757.080228
0.023424,0.387228,1.667496,0.84,172.830002,-21.49,1770467757.088222
-0.144936,0.271572,2.034228,-12.53,165.270004,-18.059999,1770467757.096123
-0.369904,0.042212,2.356064,-15.54,154.490005,-11.9,1770467757.104149
-0.540704,-0.10492,2.610312,-2.52,122.150002,-3.15,1770467757.112155
-0.759084,-0.16348,2.614948,7.98,75.529999,5.04,1770467757.120179
-0.991128,-0.228384,2.312388,-0.91,44.73,7.28,1770467757.128142
-0.946964,-0.200568,1.858304,-23.309999,16.309999,-14.91,1770467757.136139
-0.862784,-0.232776,1.47864,-38.639999,2.73,-16.1,1770467757.144146
-0.779336,-0.28304,1.177788,-41.650002,0.91,-29.049999,1770467757.152148
-0.725168,-0.295728,0.970876,-40.32,4.97,-34.650002,1770467757.160176
-0.699548,-0.234484,0.811544,-28.91,10.08,-35.419998,1770467757.168158
-0.693448,-0.14274,0.69906,-20.860001,15.89,-41.16,1770467757.17614
-0.686616,-0.03294,0.633424,-14.56,17.08,-39.830002,1770467757.18415
-0.682224,0.05124,0.566324,-7.98,14.98,-48.580002,1770467757.192191
-0.672952,0.084912,0.48068,-5.81,6.09,-49.560001,1770467757.200148
-0.63318,0.08784,0.37942,0.91,-6.58,-54.529999,1770467757.208141
-0.577792,0.081252,0.274012,4.9,-22.889999,-54.110001,1770467757.21614
-0.511912,0.07686,0.185684,12.46,-42.560001,-52.849998,1770467757.224143
-0.42944,0.091012,0.118096,16.59,-62.299999,-49.490002,1770467757.232146
-0.334768,0.143472,0.087352,20.860001,-85.120003,-44.099998,1770467757.240177
-0.249856,0.19276,0.096136,18.129999,-105.349998,-36.610001,1770467757.248267
-0.164212,0.236436,0.133468,13.23,-123.970001,-24.57,1770467757.256166
-0.103212,0.24278,0.194712,4.34,-138.740005,-24.219999,1770467757.26417
-0.03782,0.237168,0.24888,-2.31,-138.949997,-17.290001,1770467757.272146
0.060756,0.274744,0.31476,0.42,-138.880005,-10.22,1770467757.280177
0.191296,0.34282,0.456768,6.65,-136.289993,14.14,1770467757.28816
0.285236,0.412848,0.689544,6.79,-116.900002,23.1,1770467757.296128
0.366244,0.504348,0.967704,2.73,-87.360001,23.59,1770467757.304149
0.405284,0.575108,1.173884,-0.91,-45.779999,20.299999,1770467757.312506
0.370636,0.565836,1.311744,-6.02,-0.49,22.469999,1770467757.320258
0.27938,0.500932,1.548424,-11.76,48.16,22.120001,1770467757.32813
0.094916,0.355752,1.87148,-25.549999,104.440002,16.52,1770467757.336152
-0.030988,0.044408,2.161352,-28.280001,150.5,27.51,1770467757.344151
-0.20008,-0.256688,2.371192,-3.85,176.050003,38.43,1770467757.352214
-0.420168,-0.290604,2.484896,18.129999,158.690002,50.259998,1770467757.360147
-0.726632,-0.350384,2.435852,3.64,135.800003,48.720001,1770467757.368135
-0.937204,-0.410896,2.003484,-17.99,98.07,13.86,1770467757.376206
-1.006256,-0.410164,1.594784,-35.560001,54.950001,-2.31,1770467757.384154
-0.9577,-0.40626,1.281488,-49.77,10.5,-15.26,1770467757.392169
-0.841312,-0.38796,1.049444,-61.880001,-26.110001,-22.540001,1770467757.400147
-0.682224,-0.345992,0.863516,-58.099998,-52.990002,-24.780001,1770467757.408135
-0.532652,-0.252052,0.71858,-53.130001,-73.709999,-30.17,1770467757.416159
-0.389912,-0.150548,0.61488,-43.540001,-88.129997,-20.299999,1770467757.424162
-0.250588,-0.06954,0.524112,-33.32,-99.540001,-18.620001,1770467757.432268
-0.12688,-0.028548,0.4392,-27.09,-108.919998,-4.27,1770467757.440147
-0.026352,-0.007076,0.332328,-17.43,-116.900002,1.12,1770467757.448177
0.042456,0.022936,0.222284,-14.56,-119.980003,9.8,1770467757.456152
0.047824,0.031964,0.127856,-2.24,-115.43,17.219999,1770467757.464273
0.138592,0.001708,0.030256,3.36,-112.209999,12.25,1770467757.472149
0.15128,0.120536,-0.080032,12.11,-109.970001,16.940001,1770467757.480163
0.147864,0.11712,-0.086864,28.629999,-97.440002,31.780001,1770467757.488428
0.150548,0.14274,-0.01464,33.529999,-74.059998,34.439999,1770467757.496149
0.172508,0.182512,0.111508,37.380001,-43.119999,34.720001,1770467757.5042
0.22204,0.196664,0.282308,36.610001,-6.72,33.810001,1770467757.512165
0.282552,0.2074,0.467748,34.23,27.860001,27.16,1770467757.520155
0.328424,0.212524,0.69052,33.950001,68.949997,24.5,1770467757.528178
0.3416,0.285968,0.937692,34.650002,106.959999,13.37,1770467757.536133
0.335256,0.285236,1.20902,40.459999,140.559998,6.51,1770467757.54413
0.266204,0.258396,1.464976,41.439999,165.410004,0.42,1770467757.552179
0.125904,0.24278,1.70678,38.639999,181.509995,0.49,1770467757.560183
-0.031964,0.21838,2.16062,30.870001,185.149994,5.32,1770467757.568176
-0.194712,0.019032,2.638128,17.43,172.339996,8.89,1770467757.576158
-0.398208,-0.20618,2.765252,26.32,140.279999,24.01,1770467757.584154
-0.608536,-0.229848,2.608604,22.540001,89.25,22.469999,1770467757.592272
-0.889624,-0.34892,2.357772,-4.55,63.630001,26.25,1770467757.60017
-0.837652,-0.380396,1.87148,-26.67,47.040001,2.73,1770467757.608187
-0.815936,-0.403576,1.563552,-40.669998,42.279999,-6.65,1770467757.616148
-0.774944,-0.4087,1.307108,-41.369999,45.990002,-18.48,1770467757.624154
-0.7686,-0.385276,1.085556,-34.790001,52.290001,-25.9,1770467757.632178
-0.771528,-0.293288,0.900848,-28.35,57.959999,-34.369999,1770467757.640193
-0.787632,-0.171044,0.749568,-19.879999,58.029999,-42.630001,1770467757.648147
-0.787632,-0.054412,0.62952,-20.02,51.310001,-46.689999,1770467757.656146
-0.775432,0.034648,0.518012,-15.12,38.360001,-50.470001,1770467757.664155
-0.7442,0.092964,0.419924,-10.43,18.76,-54.880001,1770467757.672136
-0.681492,0.126148,0.335012,-4.76,-2.59,-60.130001,1770467757.680182
-0.609024,0.135176,0.2562,3.43,-21.91,-57.889999,1770467757.688156
-0.52948,0.139812,0.17568,10.78,-40.529999,-58.73,1770467757.69616
-0.448716,0.1525,0.082228,14.42,-59.779999,-55.09,1770467757.704159
-0.352336,0.18544,0.011956,17.01,-78.68,-46.900002,1770467757.712251
-0.254248,0.210572,0.007076,10.78,-98.489998,-35.91,1770467757.720149
-0.164456,0.21716,0.040992,4.9,-116.690002,-27.16,1770467757.728153
-0.096624,0.223992,0.106384,-1.89,-128.240005,-21.35,1770467757.736151
-0.051484,0.201544,0.171776,-3.57,-126.559998,-15.68,1770467757.744153
0.18056,0.285236,0.188124,6.09,-121.519997,0.91,1770467757.75226
0.21594,0.298656,0.389912,20.23,-114.449997,14.14,1770467757.760247
0.276208,0.360144,0.635132,38.360001,-87.57,25.059999,1770467757.768164
0.327936,0.462624,0.915244,41.299999,-48.580002,23.030001,1770467757.776137
0.333548,0.616344,1.162416,39.130001,-1.68,25.620001,1770467757.784135
0.246684,0.71126,1.249524,21.91,39.41,18.76,1770467757.79232
0.107604,0.724192,1.478396,2.66,73.849998,17.85,1770467757.800145
-0.094428,0.570716,1.8788,-13.86,119.839996,11.13,1770467757.80819
-0.295728,0.212036,2.2021,-12.6,164.5,12.25,1770467757.816166
-0.498492,-0.1159,2.3546,18.129999,174.929993,32.34,1770467757.824158
-0.641232,-0.150792,2.366556,30.24,136.919998,51.310001,1770467757.83216
-1.173396,-0.462624,2.368508,9.1,107.379997,45.709999,1770467757.840171
-1.134356,-0.407236,2.003484,-6.3,61.950001,20.58,1770467757.848229
-1.144848,-0.500444,1.650416,-26.530001,13.72,11.9,1770467757.856158
-1.055056,-0.554856,1.346148,-41.09,-32.060001,1.61,1770467757.864148
-0.906216,-0.514596,1.105808,-50.470001,-69.230003,-13.72,1770467757.872146
-0.721752,-0.490684,0.921832,-54.110001,-94.57,-20.719999,1770467757.880145
-0.526552,-0.415044,0.768112,-48.580002,-111.650002,-26.950001,1770467757.888205
-0.350628,-0.31232,0.661484,-43.259998,-121.800003,-27.370001,1770467757.896154
-0.20862,-0.203008,0.570716,-29.75,-126.349998,-19.530001,1770467757.904158
-0.080276,-0.12932,0.49898,-22.120001,-130.199997,-13.86,1770467757.912135
0.032452,-0.072468,0.406016,-17.219999,-133.979996,-5.53,1770467757.920171
0.082228,-0.025132,0.304756,-9.1,-134.190002,-1.68,1770467757.928152
0.123464,-0.064904,0.196664,-6.37,-127.889999,3.64,1770467757.936155
0.204716,0.029524,0.076616,0.77,-126.419998,6.44,1770467757.944168
0.192028,0.096868,-0.0366,11.34,-119.980003,5.95,1770467757.952205
0.200812,0.131272,-0.091744,23.030001,-107.239998,21.35,1770467757.960156
0.203252,0.143228,-0.055632,31.92,-85.75,25.059999,1770467757.968149
0.240584,0.167628,0.057096,35.349998,-55.02,24.780001,1770467757.976493
0.314516,0.16348,0.251564,39.549999,-20.790001,20.02,1770467757.984874
0.410164,0.166652,0.528748,42.98,14.84,18.34,1770467757.992203
0.490196,0.205448,0.860588,43.68,57.400002,8.19,1770467758.000164
0.515084,0.281332,1.15656,46.41,105.209999,-1.33,1770467758.00833
0.506544,0.323056,1.349076,47.880001,147.839996,-16.799999,1770467758.016178
0.423096,0.315736,1.49084,47.669998,184.380005,-20.23,1770467758.024155
0.26718,0.329156,1.64578,43.610001,205.240005,-18.41,1770467758.032138
0.15494,0.2806,2.115724,30.66,212.800003,-9.52,1770467758.040144
-0.10248,0.08052,2.611776,26.18,203.490005,4.2,1770467758.048174
-0.42578,-0.03904,2.67424,26.32,173.740005,12.18,1770467758.056249
-0.676124,-0.05002,2.56932,19.110001,126.419998,25.48,1770467758.064158
-0.839848,-0.022448,2.182092,-4.34,83.93,22.26,1770467758.072227
-0.990152,-0.235948,1.820972,-32.34,69.720001,11.06,1770467758.080158
-0.898164,-0.26718,1.473272,-40.459999,62.509998,-6.02,1770467758.088223
-0.872788,-0.308416,1.1773,-41.860001,63.91,-21.42,1770467758.096163
-0.863272,-0.296704,0.919636,-36.889999,70.489998,-24.92,1770467758.104158
-0.881572,-0.245464,0.712724,-24.639999,72.940002,-37.380001,1770467758.112147
-0.903776,-0.146644,0.556564,-17.360001,70.769997,-45.639999,1770467758.120149
-0.88572,-0.057584,0.48434,-7.56,62.16,-54.740002,1770467758.128143
-0.84546,-0.00366,0.451888,0.98,44.66,-61.950001,1770467758.136141
-0.777384,0.022936,0.401624,7.35,21.07,-66.220001,1770467758.144208
-0.687836,0.041724,0.33184,15.33,-7.0,-69.230003,1770467758.152147
-0.58194,0.061244,0.257664,17.99,-32.060001,-68.879997,1770467758.160144
-0.4697,0.079544,0.184464,21.629999,-58.310001,-63.700001,1770467758.168143
-0.370148,0.108824,0.11468,20.58,-83.370003,-58.099998,1770467758.176143
-0.28304,0.14152,0.081496,19.879999,-103.669998,-48.439999,1770467758.184142
-0.176412,0.176656,0.0793,12.74,-122.779999,-43.119999,1770467758.19233
-0.086864,0.205936,0.109068,4.76,-137.759995,-36.82,1770467758.200148
-0.033672,0.19276,0.16836,2.38,-146.300003,-29.26,1770467758.208148
-0.025376,0.158844,0.2318,0.91,-136.220001,-26.25,1770467758.21616
0.2562,0.181048,0.286212,10.85,-118.93,7.0,1770467758.224282
0.19032,0.209108,0.5673,24.780001,-94.010002,17.219999,1770467758.232142
0.22204,0.289872,0.882548,30.450001,-59.360001,22.68,1770467758.240144
0.231068,0.389424,1.247328,29.120001,-10.71,20.65,1770467758.248146
0.162504,0.46116,1.406172,19.67,37.380001,31.219999,1770467758.256146
0.000732,0.424804,1.562088,15.89,79.589996,30.73,1770467758.264192
-0.294264,0.2623,1.828536,19.74,120.260002,29.33,1770467758.272296
-0.55388,0.095404,2.014708,28.42,148.259995,31.219999,1770467758.280134
-0.8357,0.038552,2.117188,31.57,156.800003,35.700001,1770467758.288125
-1.03456,-0.12566,2.165012,16.309999,139.089996,27.51,1770467758.296165
-1.191696,-0.252052,2.171356,3.01,95.970001,10.71,1770467758.30417
-1.280756,-0.32696,1.99104,-16.59,41.09,-5.04,1770467758.312266
-1.232688,-0.385276,1.7202,-31.43,-16.870001,-20.23,1770467758.320163
-1.110444,-0.377468,1.414224,-41.93,-65.029999,-25.9,1770467758.328155
-0.934276,-0.345992,1.16266,-52.779999,-103.879997,-32.060001,1770467758.336152
-0.706868,-0.292068,0.964044,-56.209999,-128.869995,-35.139999,1770467758.344141
-0.496052,-0.194712,0.783484,-49.630001,-146.789993,-31.780001,1770467758.35217
-0.316956,-0.074664,0.619516,-43.82,-157.779999,-27.370001,1770467758.3602
-0.149328,0.015128,0.476288,-31.99,-165.410004,-18.76,1770467758.368154
-0.015372,0.033672,0.368928,-21.98,-171.009995,-10.01,1770467758.376154
0.049776,0.033916,0.261812,-14.91,-170.869995,-5.18,1770467758.384152
0.094916,0.000732,0.14884,-13.37,-166.460007,-7.14,1770467758.392221
0.319152,0.215452,-0.024888,0.49,-171.360001,21.139999,1770467758.400157
0.254736,0.129808,-0.054656,17.99,-163.100006,26.950001,1770467758.408155
0.251808,0.126392,-0.089304,22.4,-146.860001,28.629999,1770467758.416282
0.249368,0.147376,-0.0854,31.15,-120.190002,33.880001,1770467758.424146
0.256444,0.16958,-0.027328,35.91,-88.970001,28.42,1770467758.432157
0.293532,0.19764,0.102236,35.419998,-49.209999,31.01,1770467758.440192
0.347212,0.20984,0.273524,40.040001,-3.92,27.09,1770467758.448158
0.409676,0.205448,0.493124,41.09,38.919998,25.969999,1770467758.456186
0.47092,0.237656,0.743712,45.990002,81.199997,26.040001,1770467758.464162
0.487268,0.308904,1.007476,50.68,124.389999,11.27,1770467758.472244
0.485072,0.32086,1.283928,49.0,159.600006,5.18,1770467758.480157
0.417972,0.265472,1.514752,52.290001,184.589996,-2.1,1770467758.488239
0.256444,0.248148,1.764608,42.0,201.880005,-1.54,1770467758.496166
0.113704,0.170312,2.229428,26.18,206.149994,6.16,1770467758.504278
-0.122244,-0.06832,2.65716,12.67,199.149994,3.71,1770467758.512226
-0.38796,-0.250344,2.7938,21.35,170.520004,16.59,1770467758.520158
-0.665144,-0.236436,2.713036,17.01,117.949997,19.18,1770467758.528151
-1.092876,-0.440908,2.43024,-13.3,88.059998,12.25,1770467758.536136
-0.933788,-0.3477,1.93126,-34.23,59.220001,-10.78,1770467758.544154
-0.906948,-0.393572,1.5616,-45.639999,49.490002,-18.620001,1770467758.55216
-0.858392,-0.409676,1.270508,-46.48,47.950001,-29.82,1770467758.560154
-0.827648,-0.374052,1.045052,-38.919998,49.419998,-35.139999,1770467758.56815
-0.810324,-0.276452,0.84424,-31.219999,51.799999,-39.130001,1770467758.576149
-0.818376,-0.142984,0.695156,-23.66,51.099998,-43.119999,1770467758.584177
-0.82472,-0.012444,0.580232,-22.889999,40.740002,-50.610001,1770467758.592459
-0.797392,0.141764,0.473116,-19.459999,24.290001,-62.299999,1770467758.600156
-0.725412,0.129808,0.403576,-9.03,4.55,-66.43,1770467758.60814
-0.646112,0.155184,0.292068,-4.34,-14.49,-71.470001,1770467758.616193
-0.578768,0.149572,0.181048,5.32,-30.24,-66.779999,1770467758.624164
-0.485072,0.16958,0.101016,10.78,-48.09,-67.339996,1770467758.632151
-0.389424,0.197884,0.0305,10.57,-66.290001,-62.02,1770467758.640153
-0.294508,0.233508,0.008784,9.52,-89.25,-52.849998,1770467758.648152
-0.216672,0.258396,0.028792,-0.35,-106.75,-48.369999,1770467758.656228
-0.132004,0.291824,0.067832,-10.78,-119.699997,-40.529999,1770467758.664156
-0.041968,0.270352,0.133956,-10.57,-123.830002,-33.740002,1770467758.672149
0.197152,0.400404,0.202764,-8.26,-146.440002,-0.77,1770467758.68015
0.1769,0.32574,0.359412,5.25,-133.0,3.92,1770467758.688175
0.250344,0.41602,0.544608,23.450001,-100.800003,30.73,1770467758.696159
0.286944,0.399672,0.77104,43.68,-56.139999,19.879999,1770467758.70425
0.352092,0.561444,1.00162,49.77,-13.37,13.93,1770467758.712153
0.23424,0.690032,1.089216,33.669998,31.15,22.68,1770467758.720152
0.152744,0.754204,1.320528,17.5,69.580002,17.5,1770467758.728157
0.028304,0.620492,1.697752,-6.02,109.059998,13.72,1770467758.736147
-0.228628,0.342576,2.074732,-14.91,164.570007,5.18,1770467758.744166
-0.404552,-0.067588,2.336788,7.56,181.369995,21.49,1770467758.752156
-0.57828,-0.150792,2.312144,16.799999,156.800003,51.52,1770467758.760152
-0.99064,-0.142984,2.335568,16.24,117.529999,65.309998,1770467758.76817
-1.150216,-0.384056,2.152568,-17.01,82.040001,17.01,1770467758.77615
-1.206824,-0.439444,1.788276,-36.68,32.549999,11.69,1770467758.784138
-1.127524,-0.527772,1.479128,-48.23,-11.34,11.13,1770467758.792154
-1.016748,-0.565104,1.172664,-68.110001,-50.68,-14.49,1770467758.800177
-0.840824,-0.54534,0.959408,-71.400002,-79.519997,-13.58,1770467758.808161
-0.655384,-0.4819,0.773968,-70.419998,-100.169998,-30.450001,1770467758.816169
-0.488976,-0.355996,0.640256,-61.740002,-112.349998,-18.620001,1770467758.824199
-0.329156,-0.255956,0.558516,-49.98,-121.519997,-26.67,1770467758.83222
-0.189344,-0.180804,0.48434,-41.790001,-126.980003,-17.360001,1770467758.840147
-0.062464,-0.117608,0.39772,-26.530001,-131.880005,-9.24,1770467758.848151
0.027328,-0.055144,0.299632,-18.200001,-137.550003,-2.59,1770467758.85615
0.084424,-0.002196,0.194712,-9.24,-139.860001,6.16,1770467758.864195
0.086376,0.024888,0.079788,-0.56,-135.100006,2.94,1770467758.872229
0.182512,-0.001464,-0.03294,0.21,-132.649994,6.93,1770467758.880146
0.19154,0.09516,-0.154208,14.98,-127.68,4.69,1770467758.88815
0.201056,0.08906,-0.161772,24.99,-111.860001,15.61,1770467758.896162
0.229848,0.10858,-0.063196,36.400002,-86.519997,18.549999,1770467758.90419
0.298412,0.090036,0.141764,42.560001,-52.220001,16.870001,1770467758.912165
0.388936,0.0732,0.447984,44.73,-12.32,13.58,1770467758.920149
0.491416,0.123952,0.79788,47.669998,31.639999,7.28,1770467758.928152
0.533628,0.195444,1.105076,47.32,80.709999,-0.84,1770467758.936141
0.53558,0.209596,1.327848,47.950001,130.130005,-11.41,1770467758.944254
0.486536,0.176168,1.478152,48.299999,168.630005,-19.6,1770467758.952151
0.408456,0.199592,1.541592,47.740002,192.009995,-5.6,1770467758.960153
0.228628,0.19642,1.900516,44.869999,205.449997,2.52,1770467758.968152
0.072224,0.094672,2.558828,35.279999,202.509995,8.89,1770467758.976334
-0.239852,-0.035868,2.710108,28.0,177.940002,16.66,1770467758.984957
-0.515572,-0.046604,2.569808,11.41,139.300003,20.299999,1770467758.992175
-0.673928,-0.068564,2.262856,-12.74,101.080002,28.77,1770467759.000168
-0.813496,-0.163724,1.886364,-34.299999,85.959999,30.870001,1770467759.008351
-0.834236,-0.27206,1.577216,-52.919998,78.190002,10.43,1770467759.016162
-0.84058,-0.309392,1.257088,-49.0,79.029999,-3.36,1770467759.024157
-0.840336,-0.2928,0.990396,-44.66,81.339996,-14.0,1770467759.032538
-0.857172,-0.222772,0.780556,-35.0,80.709999,-24.57,1770467759.040239
-0.895236,-0.114924,0.585112,-26.32,71.120003,-43.330002,1770467759.048158
-0.870836,-0.015616,0.481656,-22.26,54.529999,-52.779999,1770467759.056159
-0.838628,0.000488,0.420168,-11.13,38.43,-57.119999,1770467759.06418
-0.740784,0.013908,0.35502,7.35,20.65,-61.25,1770467759.072175
-0.650748,0.056608,0.278892,17.85,1.19,-64.050003,1770467759.080244
-0.549488,0.09272,0.224236,25.620001,-18.83,-64.050003,1770467759.088147
-0.4514,0.137616,0.166652,27.790001,-40.110001,-56.349998,1770467759.096193
-0.360632,0.197396,0.105164,27.93,-63.209999,-49.630001,1770467759.104213
-0.2623,0.241316,0.071004,20.23,-86.800003,-41.93,1770467759.112154
-0.183488,0.258396,0.087596,7.84,-108.43,-31.5,1770467759.120144
-0.118828,0.255224,0.11956,0.35,-127.260002,-27.719999,1770467759.128145
-0.046604,0.23668,0.168116,-7.56,-132.789993,-21.07,1770467759.136141
0.033916,0.250588,0.21838,-0.07,-129.149994,-7.42,1770467759.144199
0.136884,0.252052,0.349652,14.14,-124.599998,19.389999,1770467759.152149
0.201544,0.184952,0.589504,24.219999,-71.540001,70.839996,1770467759.160147
0.183244,0.33306,0.835944,35.209999,-14.56,20.02,1770467759.168143
0.184708,0.420656,1.195844,34.09,37.169998,55.509998,1770467759.17614
0.108336,0.493368,1.437404,20.299999,87.5,15.47,1770467759.184142
-0.096136,0.476532,1.706048,9.31,125.650002,49.490002,1770467759.192163
-0.438956,0.312808,2.038376,5.11,157.080002,20.440001,1770467759.200222
-0.788852,0.1525,2.173552,21.42,167.929993,31.92,1770467759.208156
-1.036024,0.031476,2.229672,21.77,152.529999,43.049999,1770467759.216146
-1.330532,-0.281332,2.247972,8.33,120.959999,25.76,1770467759.224148
-1.396412,-0.302072,2.129632,-2.24,68.599998,24.219999,1770467759.232206
-1.410564,-0.34892,1.850984,-21.629999,3.08,1.89,1770467759.24014
-1.322236,-0.444568,1.567944,-35.91,-53.41,-3.92,1770467759.248142
-1.100196,-0.427,1.2932,-46.27,-98.139999,-11.97,1770467759.256137
-0.856928,-0.453352,1.077748,-54.25,-127.540001,-18.129999,1770467759.264181
-0.613416,-0.37576,0.856928,-55.23,-145.880005,-21.0,1770467759.272156
-0.394548,-0.291336,0.694668,-48.650002,-157.360001,-23.450001,1770467759.280155
-0.215208,-0.19642,0.561444,-42.490002,-163.800003,-18.83,1770467759.288126
-0.049776,-0.099064,0.445056,-31.99,-168.419998,-12.46,1770467759.296187
0.058316,-0.050752,0.343308,-27.23,-168.630005,-2.31,1770467759.304278
0.0854,-0.029524,0.22692,-22.120001,-161.770004,1.96,1770467759.312152
0.264984,-0.015128,0.11346,-21.07,-164.289993,11.83,1770467759.32016
0.375516,0.133224,-0.032452,1.68,-161.630005,27.860001,1770467759.328154
0.27816,0.070516,-0.069296,12.53,-148.75,33.810001,1770467759.336168
0.260104,0.08418,-0.1281,22.540001,-128.100006,39.900002,1770467759.344154
0.252784,0.10614,-0.13908,29.889999,-100.660004,32.48,1770467759.352154
0.263276,0.157624,-0.06588,32.34,-62.650002,29.4,1770467759.360142
0.302072,0.203496,0.115412,33.669998,-21.35,23.24,1770467759.368132
0.356972,0.232532,0.333548,33.459999,23.450001,20.23,1770467759.376144
0.42456,0.24156,0.564616,34.439999,69.510002,11.06,1770467759.384191
0.45262,0.255956,0.832528,39.970001,112.139999,-1.96,1770467759.392178
0.450424,0.295972,1.088484,44.66,155.259995,1.05,1770467759.400165
0.403332,0.304756,1.35786,45.779999,190.610001,-16.030001,1770467759.408153
0.272548,0.275964,1.618696,42.209999,218.330002,-9.66,1770467759.416153
0.061976,0.26596,1.987136,33.810001,235.690002,-9.59,1770467759.424218
-0.15494,0.05124,2.56566,27.02,229.669998,4.97,1770467759.432158
-0.447984,-0.159332,2.9646,42.560001,200.130005,16.17,1770467759.440149
-0.762012,-0.141764,2.847236,31.780001,139.300003,30.66,1770467759.448132
-1.001376,-0.087108,2.494656,8.12,82.949997,22.889999,1770467759.456237
-0.99552,-0.145668,1.972252,-19.18,51.169998,17.85,1770467759.464183
-0.913292,-0.243024,1.606496,-31.99,32.27,-2.45,1770467759.472145
-0.857172,-0.313052,1.335656,-41.09,29.4,-7.49,1770467759.480145
-0.824232,-0.3355,1.108492,-36.330002,34.16,-14.7,1770467759.488145
-0.809348,-0.284016,0.919148,-33.32,40.950001,-20.16,1770467759.496245
-0.813008,-0.181292,0.74298,-25.34,45.849998,-25.27,1770467759.504153
-0.806664,-0.050996,0.581208,-20.65,44.099998,-35.0,1770467759.512157
-0.79666,0.051972,0.472628,-18.76,35.98,-41.650002,1770467759.520184
-0.754936,0.104188,0.381128,-12.81,19.459999,-50.959999,1770467759.528214
-0.68198,0.099552,0.305,-5.04,5.18,-54.529999,1770467759.536134
-0.610732,0.090036,0.213012,3.22,-11.2,-50.119999,1770467759.54415
-0.531432,0.096136,0.122976,6.09,-28.559999,-56.490002,1770467759.55215
-0.449692,0.10736,0.04026,8.75,-46.900002,-51.799999,1770467759.560216
-0.358192,0.132248,-0.003172,11.62,-65.449997,-51.939999,1770467759.568152
-0.237412,0.167384,0.012688,9.24,-88.339996,-43.889999,1770467759.576148
-0.125904,0.212524,0.064904,7.42,-109.550003,-38.709999,1770467759.584151
0.377468,-0.039528,0.20252,21.209999,-90.650002,-44.52,1770467759.59229
0.055876,0.077836,0.255956,-8.12,-99.400002,-34.860001,1770467759.600164
0.064172,0.241804,0.299632,-2.66,-102.410004,-8.4,1770467759.608224
0.143472,0.289872,0.449204,20.02,-79.870003,7.0,1770467759.616155
0.166652,0.375272,0.7564,43.470001,-52.360001,27.16,1770467759.624143
0.160796,0.415776,1.10898,46.689999,12.04,4.41,1770467759.63224
0.079544,0.583404,1.32492,39.619999,58.939999,29.82,1770467759.640222
-0.062952,0.581696,1.496452,28.07,97.720001,30.799999,1770467759.648151
-0.3538,0.431636,1.75558,24.780001,138.039993,14.14,1770467759.656151
-0.67344,0.227164,1.997872,34.439999,157.919998,41.650002,1770467759.6643
-0.928664,0.129076,2.165256,37.66,143.639999,38.080002,1770467759.672144
-1.124596,0.030988,2.196976,15.89,100.730003,47.740002,1770467759.680149
-1.34322,-0.2196,2.237236,-7.0,58.939999,22.469999,1770467759.688149
-1.35908,-0.379664,2.032276,-25.48,8.12,9.03,1770467759.696364
-1.29198,-0.479704,1.733864,-45.009998,-43.470001,-7.07,1770467759.704162
-1.128012,-0.51972,1.454728,-60.200001,-86.449997,-17.290001,1770467759.712162
-0.911828,-0.503128,1.153876,-66.639999,-115.919998,-27.719999,1770467759.720141
-0.671976,-0.422608,0.928664,-63.98,-136.429993,-26.809999,1770467759.728219
-0.46238,-0.34892,0.739564,-62.299999,-148.330002,-29.75,1770467759.736176
-0.281332,-0.221552,0.573156,-53.200001,-154.419998,-22.540001,1770467759.74415
-0.124196,-0.122976,0.437248,-43.75,-161.559998,-21.42,1770467759.752151
-0.004392,-0.061,0.314272,-32.759998,-162.539993,-7.84,1770467759.760144
0.071004,-0.042212,0.214232,-19.110001,-160.300003,-3.22,1770467759.768216
0.187148,-0.092232,0.1281,-11.97,-156.729996,-2.31,1770467759.776152
0.212524,0.019276,0.01586,0.21,-150.779999,17.08,1770467759.784171
0.243268,0.065148,-0.061732,14.63,-143.009995,10.22,1770467759.792204
0.250588,0.096136,-0.16226,24.85,-132.440002,28.84,1770467759.800168
0.260348,0.091256,-0.107604,34.439999,-104.230003,26.6,1770467759.808155
0.243268,0.188856,-0.095892,38.43,-74.760002,28.07,1770467759.816461
0.265472,0.208376,0.073688,37.240002,-38.220001,21.700001,1770467759.824304
0.382836,0.290848,0.304756,34.860001,0.28,22.469999,1770467759.832157
0.417972,0.27938,0.584624,32.060001,41.509998,7.28,1770467759.840185
0.447252,0.283528,0.862052,36.75,84.629997,1.61,1770467759.848132
0.471408,0.311344,1.133624,39.759998,128.729996,-2.45,1770467759.856156
0.448716,0.31842,1.405928,42.419998,164.360001,-12.11,1770467759.864171
0.365512,0.218624,1.577704,34.299999,187.179993,-14.14,1770467759.872327
0.146888,0.269132,1.784372,27.299999,202.720001,-13.37,1770467759.880155
0.020496,0.08662,2.298724,28.84,208.460007,-2.87,1770467759.888151
-0.200568,-0.144204,2.705472,38.57,193.339996,9.52,1770467759.89615
-0.487024,-0.207156,2.656672,44.52,145.809998,17.5,1770467759.90417
-0.705648,-0.185928,2.444636,30.1,96.389999,33.32,1770467759.912197
-1.004304,-0.391132,2.10816,-4.48,77.629997,18.620001,1770467759.92016
-0.866444,-0.33428,1.7629,-23.59,56.139999,1.82,1770467759.928154
-0.84424,-0.352336,1.480104,-28.42,55.299999,-12.11,1770467759.936145
-0.823012,-0.330132,1.219756,-27.02,60.200001,-21.42,1770467759.94415
-0.81496,-0.2562,1.016748,-21.91,66.43,-33.32,1770467759.952258
-0.81862,-0.14518,0.827648,-19.530001,73.779999,-40.880001,1770467759.96016
-0.822036,-0.013908,0.667584,-14.21,73.989998,-46.549999,1770467759.968152
-0.826672,0.078812,0.5307,-17.57,65.169998,-56.0,1770467759.976528
-0.783972,0.144204,0.40504,-16.66,44.029999,-68.25,1770467759.98495
-0.6954,0.110776,0.341356,-5.53,29.889999,-74.970001,1770467759.992176
-0.665876,0.132004,0.201788,-0.56,8.75,-64.82,1770467760.00023
-0.589016,0.162504,0.110776,7.14,-10.22,-72.449997,1770467760.008169
-0.500444,0.152988,0.050508,11.2,-26.809999,-64.400002,1770467760.016237
-0.384788,0.166164,0.010004,13.3,-44.240002,-51.310001,1770467760.024148
-0.260836,0.192028,0.025376,11.55,-61.599998,-48.790001,1770467760.032159
-0.152988,0.213744,0.06466,4.41,-73.849998,-35.0,1770467760.040154
-0.078324,0.205448,0.114436,-3.15,-84.419998,-31.780001,1770467760.04815
-0.0488,0.173972,0.16836,-11.13,-86.099998,-20.440001,1770467760.056164
0.015128,0.179828,0.210572,-8.19,-80.220001,-1.33,1770467760.064158
0.105408,0.275964,0.306952,2.52,-78.120003,18.969999,1770467760.072182
-0.021472,0.399672,0.584868,12.11,-59.009998,29.889999,1770467760.080165
0.071736,0.345748,1.068476,27.51,-31.360001,29.540001,1770467760.088143
-0.025864,0.545584,1.401536,23.24,20.440001,19.879999,1770467760.096143
-0.184952,0.576328,1.625528,6.3,50.330002,42.77,1770467760.10416
-0.450424,0.415288,1.876604,-6.02,70.279999,25.059999,1770467760.112259
-0.747372,0.166652,2.036668,1.19,75.879997,40.18,1770467760.120178
-1.01504,0.018544,2.011536,13.44,75.879997,57.68,1770467760.128159
-1.201212,-0.275476,2.127924,3.99,72.940002,38.5,1770467760.136156
-1.158268,-0.430172,2.111332,-3.36,44.169998,27.860001,1770467760.144215
-1.181448,-0.5063,2.011536,-13.65,8.33,16.870001,1770467760.152137
-1.183644,-0.583648,1.738012,-33.110001,-21.91,9.45,1770467760.160139
-1.0431,-0.555832,1.433012,-42.98,-54.669998,-14.49,1770467760.168139
-0.88084,-0.516304,1.165344,-56.630001,-88.550003,-21.98,1770467760.176138
-0.679052,-0.41968,0.91866,-63.77,-117.879997,-21.98,1770467760.18415
-0.488,-0.294996,0.74664,-63.209999,-139.649994,-24.219999,1770467760.192243
-0.30622,-0.177144,0.607804,-59.57,-153.229996,-13.02,1770467760.200171
-0.072468,-0.139324,0.525332,-44.240002,-154.559998,-11.76,1770467760.208146
0.044408,-0.0183,0.342576,-39.830002,-157.5,9.1,1770467760.216152
0.071736,0.028548,0.225212,-29.75,-154.490005,5.39,1770467760.224153
0.18788,-0.035868,0.140788,-24.780001,-149.449997,10.78,1770467760.232182
0.242536,0.1586,-0.024888,-11.55,-152.880005,9.87,1770467760.24024
0.261324,0.16104,-0.079788,3.57,-148.679993,24.15,1770467760.248136
0.236436,0.199836,-0.140788,12.74,-135.520004,30.799999,1770467760.256141
0.232288,0.217404,-0.144448,19.67,-117.879997,24.709999,1770467760.264147
0.272792,0.21106,-0.071492,29.469999,-85.470001,22.26,1770467760.272153
0.332572,0.201544,0.125416,30.1,-47.040001,24.15,1770467760.280164
0.419924,0.168848,0.377956,35.419998,-9.45,9.1,1770467760.288129
0.48678,0.188368,0.640744,42.91,32.549999,-8.19,1770467760.296144
0.562908,0.173972,0.961848,49.98,87.5,-0.98,1770467760.304192
0.551928,0.212036,1.2322,58.099998,131.740005,-23.24,1770467760.312154
0.491172,0.207888,1.472052,55.860001,170.940002,-14.0,1770467760.320168
0.327692,0.173484,1.62382,54.040001,206.710007,-22.120001,1770467760.328253
0.08052,0.125172,1.93614,45.290001,221.130005,-10.22,1770467760.336149
-0.09394,-0.047336,2.671312,48.439999,219.589996,-0.63,1770467760.344148
-0.404308,-0.15372,3.062444,45.43,187.600006,17.639999,1770467760.352151
-0.717848,-0.180804,2.85358,24.219999,131.25,32.48,1770467760.360153
-0.941108,-0.211548,2.367044,0.35,85.050003,34.02,1770467760.368191
-0.992592,-0.31842,1.881972,-26.25,66.709999,29.33,1770467760.376153
-0.930128,-0.44652,1.524268,-34.439999,57.259998,7.07,1770467760.384134
-0.903044,-0.498492,1.244644,-35.0,57.189999,5.18,1770467760.392156
-0.885476,-0.437492,1.003572,-33.32,58.73,-13.65,1770467760.400336
-0.903776,-0.321836,0.818376,-26.530001,62.650002,-15.33,1770467760.408131
-0.905484,-0.155916,0.66612,-23.309999,62.860001,-21.07,1770467760.41616
-0.889624,-0.01098,0.563152,-21.629999,53.48,-29.26,1770467760.424222
-0.844728,0.086132,0.476776,-21.209999,35.07,-36.119999,1770467760.43216
-0.772748,0.122,0.38796,-20.02,15.12,-39.130001,1770467760.440156
-0.6771,0.130784,0.295728,-13.44,-6.93,-46.200001,1770467760.448159
-0.581452,0.116388,0.209596,-9.66,-27.16,-43.75,1770467760.456174
-0.49654,0.093696,0.108824,-2.94,-44.59,-43.540001,1770467760.464141
-0.36112,0.073688,0.033672,7.14,-52.709999,-42.419998,1770467760.472211
-0.258152,0.120536,-0.034892,6.44,-69.580002,-37.029999,1770467760.480162
-0.140788,0.152012,-0.000976,9.45,-83.440002,-31.15,1770467760.488146
-0.028304,0.182268,0.06832,7.91,-93.519997,-31.85,1770467760.496156
0.011468,0.17812,0.143716,5.39,-95.690002,-13.79,1770467760.504144
0.036112,0.133956,0.230824,2.87,-85.68,-27.02,1770467760.512159
0.382592,0.359168,0.216184,9.52,-78.889999,-3.15,1770467760.520171
0.2501,0.232532,0.485316,24.01,-54.669998,17.780001,1770467760.528357
0.265472,0.308416,0.71614,35.209999,-10.29,26.809999,1770467760.536136
0.199592,0.471652,1.011868,33.32,37.099998,30.66,1770467760.544152
0.06466,0.620736,1.258064,18.76,76.580002,31.08,1770467760.552169
-0.170312,0.693448,1.503528,-2.59,106.540001,36.259998,1770467760.560238
-0.517036,0.5063,1.866356,-13.58,132.929993,36.400002,1770467760.568176
-0.847412,0.200568,2.210152,6.86,131.740005,60.34,1770467760.57615
-1.150216,0.040016,2.342156,27.299999,99.190002,74.970001,1770467760.584154
-1.498648,-0.355264,2.418528,13.86,71.120003,66.779999,1770467760.592178
-1.426668,-0.387716,2.27164,-0.98,24.43,44.450001,1770467760.600179
-1.377136,-0.470188,2.045452,-11.62,-19.879999,32.900002,1770467760.608139
-1.266848,-0.518256,1.758508,-29.120001,-57.610001,19.110001,1770467760.616147
-1.092144,-0.563152,1.484008,-44.310001,-90.019997,0.77,1770467760.624209
-0.86742,-0.52826,1.21268,-55.439999,-116.199997,-13.09,1770467760.632255
-0.63806,-0.460672,0.9821,-63.630001,-137.199997,-26.6,1770467760.640149
-0.430904,-0.35502,0.808128,-61.18,-153.229996,-24.01,1770467760.648151
-0.237656,-0.244244,0.672952,-55.93,-167.649994,-21.98,1770467760.656146
-0.061732,-0.1342,0.568764,-45.290001,-178.080002,-14.49,1770467760.664178
0.056364,-0.090036,0.477508,-33.669998,-171.289993,-11.13,1770467760.672314
0.185928,-0.087352,0.383568,-33.32,-168.770004,6.79,1770467760.680149
0.31476,-0.045628,0.242292,-29.540001,-169.399994,7.77,1770467760.688159
0.353556,-0.003904,0.114436,-18.969999,-167.440002,15.82,1770467760.69614
0.394792,0.0427,0.005856,-7.35,-159.460007,28.84,1770467760.70415
0.366488,0.09638,-0.09272,2.45,-152.110001,36.259998,1770467760.712155
0.310124,0.162504,-0.17202,4.9,-140.979996,41.860001,1770467760.720158
0.399916,0.03538,-0.189832,12.67,-125.720001,44.939999,1770467760.728255
0.296704,0.157868,-0.155672,22.889999,-82.669998,31.360001,1770467760.736178
0.421388,0.0793,0.040748,29.75,-37.029999,48.09,1770467760.744146
0.449692,0.064172,0.2806,49.77,18.83,23.450001,1770467760.752148
0.555832,0.05612,0.620248,60.549999,70.489998,36.049999,1770467760.760175
0.585356,0.16226,0.953552,65.169998,129.5,23.030001,1770467760.768736
0.569008,0.243756,1.177056,66.919998,176.610001,12.39,1770467760.776149
0.543632,0.257176,1.359324,63.91,216.720001,1.82,1770467760.78414
0.438224,0.205936,1.52988,56.419998,247.800003,1.12,1770467760.792148
0.228872,0.117364,1.844396,52.220001,267.679993,18.059999,1770467760.800163
-0.045384,0.103944,2.449516,48.299999,264.529999,27.65,1770467760.80816
-0.382836,-0.071004,2.765984,34.02,234.710007,48.580002,1770467760.816183
-0.724436,-0.141764,2.6047,24.85,179.619995,58.799999,1770467760.824284
-1.1163,-0.34526,2.2997,-9.52,137.619995,58.029999,1770467760.832213
-1.114348,-0.38552,1.777296,-24.219999,107.730003,36.259998,1770467760.840152
-1.119716,-0.43554,1.485472,-28.209999,89.040001,17.780001,1770467760.848149
-1.086044,-0.437248,1.291004,-31.219999,77.209999,0.35,1770467760.856165
-1.052372,-0.394792,1.100684,-28.559999,73.080002,-14.0,1770467760.864284
-1.0126,-0.310368,0.91988,-24.360001,68.529999,-32.41,1770467760.872145
-0.977708,-0.203252,0.751032,-24.219999,61.529999,-42.630001,1770467760.880153
-0.910852,-0.089792,0.59048,-22.33,45.709999,-54.880001,1770467760.888151
-0.822524,-0.00366,0.48922,-19.459999,24.99,-51.939999,1770467760.89613
-0.720532,-0.048312,0.450668,-8.19,-2.24,-63.07,1770467760.904156
-0.620004,0.103456,0.360144,-4.34,-28.98,-64.190002,1770467760.912192
-0.547048,0.1281,0.309392,0.91,-44.450001,-57.119999,1770467760.920149
-0.457988,0.182024,0.235704,4.9,-64.190002,-58.099998,1770467760.928159
-0.342576,0.2196,0.183,5.74,-80.43,-47.110001,1770467760.936159
-0.23424,0.244488,0.137372,7.0,-97.580002,-37.939999,1770467760.944267
-0.116876,0.211304,0.13176,3.78,-110.110001,-30.17,1770467760.952147
-0.065148,0.2135,0.122488,-4.13,-108.639999,-24.219999,1770467760.96015
0.028548,0.28548,0.116144,-8.68,-110.110001,-20.65,1770467760.968154
0.149816,0.370392,0.130296,1.75,-114.660004,10.71,1770467760.97633
0.193736,0.354288,0.195932,9.31,-98.980003,21.35,1770467760.984424
0.208376,0.347944,0.339404,22.33,-64.260002,37.52,1770467760.992284
0.200568,0.407968,0.565836,34.650002,-7.91,40.110001,1770467761.000149
0.146888,0.589992,0.880108,42.419998,58.310001,35.139999,1770467761.008164
0.058316,0.776408,1.280756,31.360001,113.050003,31.43,1770467761.016871
-0.138104,0.854,1.64822,7.77,149.520004,28.77,1770467761.024166
-0.5063,0.677588,1.979816,-22.889999,173.389999,33.25,1770467761.032192
-0.915976,0.305732,2.186484,-7.49,172.130005,42.209999,1770467761.040149
-1.301984,0.212036,2.10572,15.33,152.740005,54.599998,1770467761.048232
-1.686284,0.004148,2.101328,5.11,115.080002,35.700001,1770467761.056155
-1.631628,-0.350628,1.977376,-9.24,46.619999,23.59,1770467761.064165
-1.687504,-0.431392,1.804136,-29.4,-12.95,24.57,1770467761.072239
-1.581852,-0.540704,1.607472,-39.759998,-67.269997,-3.99,1770467761.080162
-1.264408,-0.627568,1.423984,-40.18,-107.239998,-25.690001,1770467761.088148
-0.930616,-0.615368,1.218292,-40.529999,-140.419998,-23.309999,1770467761.096145
-0.667096,-0.528016,0.985028,-46.200001,-167.440002,-40.459999,1770467761.10413
-0.446032,-0.38918,0.780556,-49.419998,-188.789993,-31.5,1770467761.112138
-0.248636,-0.278404,0.650504,-45.009998,-203.210007,-31.99,1770467761.120197
-0.04514,-0.192272,0.566812,-31.01,-211.119995,-19.6,1770467761.12815
0.097112,-0.11834,0.496052,-19.809999,-212.100006,-12.88,1770467761.136147
0.220088,-0.10248,0.427,-12.53,-205.240005,-0.56,1770467761.144149
0.350384,-0.030012,0.299388,-5.32,-207.410004,2.73,1770467761.152287
0.366488,0.017812,0.182024,2.31,-200.339996,9.31,1770467761.160144
0.421632,0.103456,0.03294,13.09,-185.639999,27.719999,1770467761.168147
0.282064,0.12078,-0.041236,20.23,-157.990005,30.450001,1770467761.176145
0.322812,0.084912,-0.125172,24.01,-133.210007,45.150002,1770467761.184146
0.355264,0.106628,-0.141032,31.92,-93.099998,37.73,1770467761.192143
0.35258,0.054656,-0.016592,33.740002,-53.48,48.09,1770467761.200194
0.390156,0.046604,0.142496,44.450001,8.75,20.58,1770467761.208219
0.458476,0.069296,0.368928,46.900002,55.509998,35.139999,1770467761.216157
0.492636,0.10248,0.699548,49.630001,103.459999,13.72,1770467761.224153
0.512156,0.171532,0.987224,49.560001,156.380005,-7.84,1770467761.232151
0.489708,0.17934,1.230248,45.849998,211.119995,3.57,1770467761.240142
0.41846,0.059048,1.416664,31.639999,255.570007,-16.940001,1770467761.248169
0.282552,0.084668,1.634068,25.200001,285.459991,11.06,1770467761.256226
0.04758,0.101748,2.22772,12.11,302.119995,20.02,1770467761.264148
-0.415532,-0.056852,2.7816,-1.12,286.790009,32.27,1770467761.27215
-0.753716,-0.181292,2.745244,6.58,223.440002,59.290001,1770467761.280136
-1.298812,-0.305,2.470744,-6.09,156.309998,47.599998,1770467761.288125
-1.429596,-0.33306,1.896368,-24.360001,88.760002,38.779999,1770467761.296146
-1.28832,-0.401624,1.521828,-25.969999,58.52,13.93,1770467761.304141
-1.200236,-0.300608,1.297836,-25.690001,34.299999,-1.89,1770467761.312213
-1.108248,-0.20374,1.1346,-28.98,18.9,-25.129999,1770467761.320191
-1.019188,-0.099552,0.99552,-28.139999,2.45,-39.060001,1770467761.328156
-0.950136,-0.00122,0.837652,-30.66,-12.6,-49.139999,1770467761.33615
-0.842532,0.063196,0.681736,-26.809999,-28.35,-59.150002,1770467761.344301
-0.726144,0.116632,0.554368,-23.309999,-38.779999,-67.199997,1770467761.352157
-0.601948,0.152012,0.442128,-19.040001,-49.77,-72.379997,1770467761.360151
-0.484828,0.167872,0.338428,-8.12,-56.349998,-70.279999,1770467761.368146
-0.385276,0.185684,0.248392,3.36,-65.029999,-67.480003,1770467761.376148
-0.302316,0.212036,0.165676,12.88,-73.010002,-61.040001,1770467761.384204
-0.244976,0.242292,0.125904,19.809999,-82.879997,-54.950001,1770467761.392188
-0.187636,0.296948,0.10614,17.08,-92.190002,-48.23,1770467761.400163
-0.074908,0.296216,0.119072,15.68,-104.790001,-35.349998,1770467761.408142
0.040016,0.358924,0.105408,9.1,-123.620003,-18.620001,1770467761.416261
0.084912,0.371368,0.1159,10.43,-141.119995,7.28,1770467761.424143
0.08296,0.376004,0.131272,9.45,-142.309998,17.290001,1770467761.432165
0.110532,0.34282,0.17934,11.55,-123.760002,28.42,1770467761.440152
0.156648,0.349652,0.306952,23.870001,-87.220001,29.889999,1770467761.448361
0.178852,0.404308,0.528748,35.209999,-30.379999,31.639999,1770467761.456161
0.205204,0.511912,0.8235,40.740002,43.049999,32.27,1770467761.464156
0.199104,0.584624,1.133136,37.52,109.269997,26.389999,1770467761.472149
0.077592,0.60878,1.49206,15.96,160.229996,25.129999,1770467761.480144
-0.177876,0.530456,1.937848,-10.22,197.050003,18.549999,1770467761.488131
-0.569496,0.219844,2.369728,-14.35,218.470001,16.73,1770467761.496191
-1.120692,0.004636,2.39608,13.23,195.160004,47.040001,1770467761.504154
-1.710928,-0.298656,2.35704,3.92,168.279999,40.18,1770467761.512244
-1.584048,-0.299388,2.070096,-1.33,109.059998,28.42,1770467761.520152
-1.623088,-0.400404,1.913692,-4.13,40.040001,9.66,1770467761.528178
-1.565504,-0.473848,1.694336,-19.6,-33.810001,2.73,1770467761.536165
-1.383236,-0.509472,1.475956,-34.369999,-94.010002,-15.26,1770467761.544193
-1.09922,-0.557296,1.277584,-45.009998,-141.190002,-29.469999,1770467761.552156
-0.798856,-0.513376,1.068964,-50.889999,-173.110001,-34.23,1770467761.560151
-0.519232,-0.442616,0.885964,-47.25,-194.949997,-43.189999,1770467761.568177
-0.29158,-0.304512,0.7503,-42.419998,-206.639999,-41.509998,1770467761.576152
-0.071736,-0.22814,0.640012,-28.629999,-210.0,-36.119999,1770467761.584151
0.03904,-0.208132,0.567056,-12.67,-211.539993,-40.389999,1770467761.592151
0.217648,-0.174216,0.46604,-10.57,-194.949997,1.12,1770467761.600144
0.302804,-0.186904,0.348188,-11.2,-180.669998,-31.290001,1770467761.608154
0.460672,0.020252,0.155184,3.08,-176.539993,29.540001,1770467761.616264
0.424316,-0.044652,0.053192,14.07,-158.199997,28.0,1770467761.624146
0.3782,-0.0549,-0.057828,15.96,-137.830002,40.18,1770467761.632158
0.338428,-0.008784,-0.183244,17.57,-115.010002,49.98,1770467761.640157
0.30134,-0.002928,-0.2257,24.08,-83.650002,49.07,1770467761.648354
0.285724,0.044652,-0.178364,32.759998,-48.02,55.790001,1770467761.656152
0.31476,0.10858,-0.013908,46.130001,-5.95,46.27,1770467761.664156
0.368928,0.153232,0.227652,50.400002,38.639999,41.23,1770467761.67215
0.393328,0.274988,0.529968,51.59,85.260002,32.689999,1770467761.680182
0.425048,0.376004,0.903044,42.139999,130.130005,22.82,1770467761.688185
0.450912,0.447008,1.137772,34.299999,171.080002,9.03,1770467761.696158
0.42456,0.461648,1.303448,22.540001,200.130005,1.47,1770467761.704133
0.332572,0.394548,1.483764,16.870001,220.429993,2.17,1770467761.712167
0.14518,0.42578,1.746064,8.89,231.070007,10.15,1770467761.720154
-0.095648,0.135908,2.065216,-6.44,231.559998,11.9,1770467761.728231
-0.443104,-0.061732,2.300432,-11.34,214.830002,3.85,1770467761.736305
-0.679052,-0.177388,2.466352,5.88,183.190002,23.799999,1770467761.74415
-1.026996,-0.322324,2.449516,7.91,127.610001,35.139999,1770467761.752165
-1.141432,-0.421144,2.102304,4.97,91.419998,3.5,1770467761.760183
-1.113616,-0.363804,1.720932,-3.15,58.939999,-7.49,1770467761.76818
-1.019188,-0.292312,1.483276,-12.88,41.720001,-31.780001,1770467761.776153
-0.928908,-0.200568,1.276364,-16.870001,32.200001,-46.200001,1770467761.784134
-0.848876,-0.144204,1.087264,-21.139999,28.07,-52.779999,1770467761.792151
-0.738588,-0.109068,0.904508,-30.030001,22.33,-53.060001,1770467761.800151
-0.706868,-0.0183,0.716628,-27.02,18.41,-58.59,1770467761.808134
-0.660264,0.045628,0.567544,-27.58,11.06,-55.09,1770467761.816299
-0.589504,0.080764,0.460184,-26.32,8.61,-45.57,1770467761.824263
-0.541436,0.119072,0.33916,-8.89,-0.98,-68.809998,1770467761.832164
-0.478972,0.160552,0.240584,0.14,-11.69,-48.02,1770467761.840157
-0.427976,0.190808,0.1769,10.01,-30.17,-60.27,1770467761.848346
-0.369904,0.26108,0.104676,6.51,-47.32,-47.810001,1770467761.856493
-0.338672,0.259372,0.140056,3.57,-58.029999,-40.599998,1770467761.864152
-0.198372,0.30988,0.111264,4.2,-74.480003,-34.23,1770467761.872211
0.143716,0.134932,0.558272,9.59,-97.440002,-17.01,1770467761.880151
0.078812,0.15128,0.201056,8.68,-97.650002,-27.16,1770467761.888154
0.152988,0.238876,0.158356,2.1,-93.519997,25.83,1770467761.896151
0.14518,0.264496,0.149572,3.57,-81.690002,42.349998,1770467761.904165
0.170556,0.305244,0.20984,12.74,-58.310001,33.110001,1770467761.912246
0.205936,0.379908,0.399916,21.629999,-23.940001,44.59,1770467761.920159
0.16958,0.50264,0.677588,30.52,28.07,28.91,1770467761.928152
0.130784,0.631716,1.071648,30.66,79.379997,42.419998,1770467761.936146
0.013664,0.687836,1.463024,19.18,123.970001,28.84,1770467761.944156
-0.273524,0.682956,1.80926,-5.32,149.029999,24.360001,1770467761.952169
-0.646356,0.442616,2.171356,-22.120001,154.350006,21.35,1770467761.960152
-1.170224,0.213988,2.265784,7.21,134.610001,34.16,1770467761.968148
-1.588928,0.025376,2.229916,4.69,106.959999,38.220001,1770467761.976481
-1.547692,-0.144936,2.07156,0.21,63.419998,19.110001,1770467761.984343
-1.546228,-0.276696,1.9276,-4.41,9.73,6.09,1770467761.99219
-1.408368,-0.425048,1.798524,-9.45,-35.209999,-12.88,1770467762.000167
-1.240008,-0.528992,1.604788,-21.139999,-72.449997,-24.01,1770467762.00813
-1.025776,-0.569496,1.435696,-32.34,-102.480003,-29.959999,1770467762.016155
-0.771284,-0.543632,1.247328,-39.34,-127.470001,-37.73,1770467762.024165
-0.5307,-0.468724,1.052372,-39.41,-147.910004,-34.23,1770467762.032246
-0.331596,-0.358924,0.853024,-36.330002,-161.559998,-33.18,1770467762.040159
-0.151524,-0.239852,0.708576,-27.09,-168.419998,-29.82,1770467762.048175
-0.010248,-0.142984,0.58316,-20.23,-171.850006,-17.57,1770467762.056164
0.067344,-0.099064,0.483852,-14.91,-165.410004,-11.41,1770467762.064161
0.211548,-0.1159,0.383568,-13.44,-164.080002,0.28,1770467762.072188
0.266204,-0.08174,0.266204,-14.91,-155.610001,6.44,1770467762.080151
0.291824,-0.061976,0.16104,-7.91,-140.979996,21.84,1770467762.088146
0.291824,-0.044408,0.074908,-0.7,-123.970001,29.889999,1770467762.096145
0.331596,-0.171288,0.040016,7.35,-112.699997,49.349998,1770467762.104134
0.25132,-0.111264,-0.11102,18.200001,-86.239998,45.639999,1770467762.112198
0.19764,-0.074908,-0.148108,21.77,-59.43,54.110001,1770467762.12015
0.207888,-0.088084,-0.076616,34.509998,-27.16,50.540001,1770467762.12815
0.223992,-0.037332,0.057828,47.880001,15.05,44.799999,1770467762.136152
0.247904,0.001464,0.2867,54.669998,55.93,37.939999,1770467762.144147
0.2684,0.07076,0.610244,54.110001,100.589996,24.709999,1770467762.152194
0.260592,0.172752,0.985272,47.32,147.139999,17.85,1770467762.160258
0.195688,0.275232,1.228784,37.310001,181.929993,-6.02,1770467762.168145
0.177144,0.264252,1.462292,31.01,206.149994,-9.17,1770467762.176134
0.106872,0.28182,1.661884,25.200001,219.380005,-4.13,1770467762.18415
-0.159088,0.348188,2.106696,11.97,212.660004,10.36,1770467762.192185
-0.361364,0.120048,2.512468,2.52,187.809998,17.43,1770467762.200238
-0.736392,0.008784,2.502952,15.89,140.559998,29.959999,1770467762.208122
-1.003084,-0.015372,2.372412,12.88,81.620003,33.740002,1770467762.216144
-1.094828,-0.107848,2.086688,-3.36,47.529999,23.450001,1770467762.224147
-1.036024,-0.109312,1.722396,-16.73,19.530001,3.64,1770467762.232142
-0.954284,-0.11834,1.515972,-23.1,8.96,-14.49,1770467762.24017
-0.853756,-0.079056,1.362252,-25.969999,7.63,-30.940001,1770467762.248168
-0.78446,-0.030988,1.177056,-29.33,13.3,-33.18,1770467762.256165
-0.726876,0.012688,0.991128,-32.130001,16.870001,-42.419998,1770467762.264147
-0.66612,0.058316,0.793488,-31.639999,17.290001,-45.080002,1770467762.272143
-0.622932,0.100284,0.603656,-29.889999,10.78,-49.279999,1770467762.280136
-0.57584,0.109068,0.467748,-24.99,4.76,-55.09,1770467762.288129
-0.513376,0.101992,0.36356,-13.09,-5.6,-58.099998,1770467762.296159
-0.500688,0.084912,0.244,-12.67,-10.57,-46.549999,1770467762.304174
-0.385276,0.026352,0.221796,3.99,-23.66,-50.400002,1770467762.312222
-0.327204,0.076128,0.17202,10.92,-39.830002,-46.759998,1770467762.320219
-0.269132,0.12322,0.131272,21.700001,-49.700001,-33.950001,1770467762.328158
-0.195688,0.150792,0.131028,19.25,-62.439999,-31.08,1770467762.336294
-0.141032,0.152988,0.139568,17.43,-76.370003,-18.34,1770467762.344147
-0.05246,0.173972,0.116144,10.08,-88.410004,-3.85,1770467762.352167
-0.027572,0.251076,0.08906,4.55,-102.900002,12.95,1770467762.360154
0.107116,0.130052,0.29402,8.68,-122.220001,26.530001,1770467762.36816
0.116632,0.199348,0.254004,23.450001,-94.639999,28.42,1770467762.376272
0.096868,0.300364,0.400892,33.32,-68.599998,39.549999,1770467762.384143
0.136152,0.407968,0.66124,35.560001,-29.120001,35.630001,1770467762.39215
0.181292,0.566324,1.010404,29.75,25.200001,25.27,1770467762.400152
0.132248,0.665632,1.396656,16.66,75.949997,28.77,1770467762.408132
-0.032452,0.741028,1.749236,-7.21,119.279999,18.41,1770467762.41616
-0.319396,0.66002,2.049112,-37.450001,149.449997,18.48,1770467762.424166
-0.660996,0.2867,2.272372,-39.34,164.5,22.33,1770467762.432194
-1.082628,0.079056,2.2692,-5.88,147.490005,49.490002,1770467762.440276
-1.354688,-0.044896,2.22162,-6.09,118.720001,48.09,1770467762.448149
-1.420324,-0.2135,2.049112,-16.030001,76.720001,28.84,1770467762.456167
-1.449116,-0.310612,1.854644,-17.709999,27.370001,10.92,1770467762.464158
-1.35664,-0.39894,1.624552,-29.33,-22.82,-8.54,1770467762.472302
-1.18706,-0.445788,1.4152,-40.110001,-66.010002,-23.799999,1770467762.48015
-0.968436,-0.459208,1.230004,-47.810001,-105.699997,-34.439999,1770467762.488153
-0.685396,-0.469944,1.045052,-50.330002,-129.220001,-39.27,1770467762.496158
-0.446032,-0.377956,0.859368,-43.470001,-150.850006,-36.889999,1770467762.504221
-0.256688,-0.284992,0.729072,-35.209999,-166.110001,-38.220001,1770467762.512153
-0.019276,-0.273768,0.629276,-18.34,-170.660004,-44.869999,1770467762.520182
0.09516,-0.172264,0.500444,-10.22,-169.050003,-11.76,1770467762.528216
0.14396,-0.152988,0.414068,-7.35,-163.240005,-29.049999,1770467762.536131
0.241072,-0.168848,0.3111,-9.03,-151.550003,0.28,1770467762.544155
0.387716,-0.025132,0.14152,2.31,-152.740005,20.440001,1770467762.552385
0.307196,-0.082472,0.076616,10.99,-141.399994,44.799999,1770467762.560151
0.274256,-0.102724,0.003172,18.690001,-122.150002,55.509998,1770467762.568216
0.247172,-0.112972,-0.061488,24.43,-96.459999,53.200001,1770467762.576149
0.208864,-0.101748,-0.102968,34.650002,-59.779999,57.049999,1770467762.584151
0.190564,-0.061,-0.09516,40.32,-25.27,48.93,1770467762.592153
0.18666,-0.0305,0.01342,40.32,14.42,48.509998,1770467762.600179
0.208864,0.000244,0.164212,43.610001,50.119999,40.110001,1770467762.608132
0.2501,0.075152,0.4148,44.310001,84.489998,26.74,1770467762.616147
0.271572,0.187392,0.799832,49.0,124.040001,16.1,1770467762.624271
0.284992,0.3172,1.164856,50.400002,162.259995,-4.69,1770467762.632154
0.243268,0.382836,1.473516,40.880001,194.389999,-9.31,1770467762.64016
0.14396,0.3965,1.648708,26.530001,209.509995,-11.13,1770467762.648186
-0.10492,0.48068,2.008852,-4.97,190.259995,3.64,1770467762.656169
-0.327936,0.322812,2.4766,-28.0,165.270004,12.67,1770467762.664144
-0.575352,-0.019276,2.51198,-21.559999,126.419998,16.73,1770467762.672159
-0.760792,-0.188368,2.502708,1.75,75.529999,33.32,1770467762.680153
-1.159244,-0.533628,2.330444,-0.7,58.310001,17.01,1770467762.688155
-0.90524,-0.330376,1.934432,-6.23,32.830002,1.68,1770467762.696175
-0.859368,-0.289872,1.615036,-10.64,27.16,-16.799999,1770467762.704256
-0.8113,-0.257176,1.378112,-22.33,24.99,-26.950001,1770467762.712279
-0.75274,-0.177144,1.203164,-23.1,31.639999,-34.650002,1770467762.720152
-0.722484,-0.090036,1.0248,-26.25,34.09,-49.84,1770467762.728164
-0.772992,0.00854,0.89426,-26.67,22.049999,-47.950001,1770467762.736146
-0.624152,0.031964,0.68442,-29.120001,15.19,-39.48,1770467762.744157
-0.5795,0.085644,0.52094,-24.709999,9.45,-61.880001,1770467762.752187
-0.526552,0.105408,0.391864,-20.58,0.35,-51.52,1770467762.760156
-0.455792,0.088328,0.282796,-11.76,-13.16,-68.25,1770467762.768167
-0.403088,0.115168,0.181292,-5.11,-25.9,-55.09,1770467762.776155
-0.339892,0.110776,0.128344,4.41,-39.830002,-56.349998,1770467762.784214
-0.265716,0.148108,0.080764,17.08,-52.57,-43.330002,1770467762.792285
-0.185928,0.202764,0.067588,22.68,-67.480003,-41.02,1770467762.800147
-0.115656,0.032452,0.286456,32.130001,-48.580002,-50.82,1770467762.808137
0.023424,0.084912,0.151768,26.110001,-44.869999,-15.82,1770467762.816153
0.1037,0.229848,0.122488,19.32,-50.540001,-5.39,1770467762.824163
0.145668,0.262788,0.119804,25.41,-53.759998,22.120001,1770467762.832155
0.161284,0.302072,0.17934,26.74,-43.82,34.580002,1770467762.840162
0.167628,0.33306,0.344772,31.01,-17.57,27.299999,1770467762.848251
0.145912,0.493368,0.58194,34.720001,23.030001,34.439999,1770467762.856164
0.127856,0.626104,0.937204,30.030001,73.080002,23.59,1770467762.864168
0.049532,0.744932,1.329312,15.12,122.989998,31.57,1770467762.872224
-0.13664,0.789828,1.736304,-10.22,156.169998,17.08,1770467762.880174
-0.490196,0.669292,2.127924,-39.200001,173.039993,13.93,1770467762.888158
-0.928908,0.28426,2.396568,-27.23,167.789993,34.23,1770467762.89616
-1.40666,0.074176,2.41438,8.19,136.289993,58.52,1770467762.904162
-1.628212,-0.14762,2.242848,3.43,107.589996,43.889999,1770467762.912153
-1.580388,-0.25376,1.91174,0.98,60.27,26.32,1770467762.920144
-1.53964,-0.339648,1.726544,-8.89,10.29,6.72,1770467762.928148
-1.45668,-0.415532,1.513288,-23.24,-41.02,-14.35,1770467762.936133
-1.312232,-0.500932,1.326384,-37.450001,-92.330002,-34.439999,1770467762.944159
-1.091412,-0.492636,1.14314,-46.970001,-136.080002,-49.560001,1770467762.952493
-0.59414,-0.58194,1.16632,-37.52,-182.839996,-49.209999,1770467762.960162
-0.5307,-0.440664,0.882304,-37.450001,-178.990005,-58.66,1770467762.968148
-0.292312,-0.295728,0.764696,-28.98,-194.949997,-56.0,1770467762.97626
-0.016348,-0.247416,0.660752,-17.709999,-205.520004,-48.580002,1770467762.985056
0.116632,-0.182512,0.577792,-7.77,-199.289993,-42.419998,1770467762.992178
0.241804,-0.150304,0.44774,-7.21,-195.649994,-25.129999,1770467763.000163
0.282064,-0.109068,0.319152,-7.14,-191.660004,-15.68,1770467763.008137
0.420656,-0.112972,0.216428,-2.31,-185.850006,2.38,1770467763.016141
0.406748,-0.078812,0.062952,5.46,-168.350006,25.41,1770467763.024156
0.368684,-0.063928,-0.066124,11.34,-152.529999,38.639999,1770467763.032175
0.287432,-0.027084,-0.161284,9.8,-134.539993,36.610001,1770467763.040157
0.350872,-0.185928,-0.133956,24.01,-86.660004,53.970001,1770467763.048271
0.358436,-0.088816,-0.153964,41.369999,-34.299999,34.369999,1770467763.056166
0.310856,-0.032696,-0.005368,49.209999,17.219999,46.060001,1770467763.064202
0.341112,0.01464,0.220576,52.43,62.509998,31.780001,1770467763.072157
0.36478,0.088328,0.51484,54.389999,109.480003,27.16,1770467763.08016
0.439932,0.255468,0.826672,53.759998,154.279999,23.59,1770467763.088159
0.402356,0.335256,1.1285,47.529999,197.889999,5.74,1770467763.096235
0.366976,0.361608,1.358836,35.560001,232.820007,4.27,1770467763.104144
0.256688,0.326716,1.563308,24.780001,246.679993,2.31,1770467763.112149
0.013176,0.370636,1.990308,7.0,246.610001,17.780001,1770467763.12014
-0.367952,0.263032,2.371436,-9.66,226.729996,17.290001,1770467763.128143
-0.681492,-0.034404,2.482212,-14.0,185.919998,25.76,1770467763.136143
-0.964044,-0.163236,2.52052,1.19,126.629997,34.23,1770467763.14414
-1.433988,-0.42334,2.301652,-4.69,86.309998,17.01,1770467763.152303
-1.221708,-0.3111,1.892464,-9.31,46.130001,1.26,1770467763.160153
-1.141676,-0.277428,1.592832,-12.67,26.18,-20.440001,1770467763.168144
-1.021384,-0.242292,1.384944,-18.27,20.299999,-34.93,1770467763.176141
-0.903044,-0.188856,1.202432,-20.790001,21.209999,-49.349998,1770467763.18413
-0.80276,-0.10492,1.026264,-26.879999,21.280001,-60.48,1770467763.192144
-0.71736,-0.03294,0.840336,-31.780001,19.18,-63.98,1770467763.200176
-0.663436,0.027084,0.682468,-35.560001,8.96,-72.730003,1770467763.208123
-0.6161,0.096136,0.513376,-30.73,2.8,-68.32,1770467763.216149
-0.552904,0.121268,0.370392,-20.860001,-6.23,-74.480003,1770467763.224191
-0.538752,0.137372,0.237656,-21.0,-33.669998,-67.760002,1770467763.232148
-0.421632,0.150304,0.170556,0.56,-39.48,-67.550003,1770467763.240141
-0.347212,0.183976,0.126148,11.41,-49.349998,-52.919998,1770467763.248148
-0.312076,0.20496,0.079788,11.41,-57.82,-50.540001,1770467763.256159
-0.187392,0.250588,0.064904,8.82,-73.989998,-35.349998,1770467763.264189
-0.12078,0.251076,0.099308,6.65,-90.860001,-14.35,1770467763.272147
-0.033916,0.24278,0.104188,1.47,-108.709999,-3.78,1770467763.280131
0.021472,0.255224,0.119316,-3.57,-119.910004,16.379999,1770467763.288116
0.164456,0.195932,0.186904,13.23,-115.220001,14.84,1770467763.296226
0.162748,0.187636,0.226676,30.17,-88.550003,38.43,1770467763.304153
0.148596,0.284992,0.377712,41.09,-44.799999,39.200001,1770467763.312156
0.136152,0.381616,0.692716,51.099998,13.72,37.66,1770467763.320148
0.114924,0.567544,1.073356,55.23,81.269997,32.549999,1770467763.328405
0.01098,0.688812,1.441308,39.200001,131.949997,24.5,1770467763.336144
-0.220576,0.710284,1.809748,13.58,160.509995,28.07,1770467763.344147
-0.604632,0.501176,2.146956,-6.65,173.389999,21.139999,1770467763.352153
-1.0797,0.255468,2.209176,12.11,159.039993,41.09,1770467763.360171
-1.386408,0.092476,2.172088,7.42,129.710007,44.380001,1770467763.368148
-1.591612,-0.154452,2.073756,-12.32,80.709999,24.290001,1770467763.376146
-1.506456,-0.514352,2.030324,-11.13,25.41,12.04,1770467763.384146
-1.398364,-0.591944,1.821704,-8.54,-26.6,13.58,1770467763.39216
-1.308084,-0.606828,1.61162,-24.57,-83.019997,-8.75,1770467763.400152
-0.995764,-0.658068,1.451312,-25.549999,-116.339996,-31.360001,1770467763.408135
-0.771284,-0.558516,1.214388,-37.52,-152.460007,-26.32,1770467763.416147
-0.543876,-0.450912,0.99552,-39.689999,-179.410004,-44.099998,1770467763.424145
-0.254248,-0.38796,0.9028,-30.66,-191.660004,-44.099998,1770467763.432268
-0.053436,-0.272548,0.679052,-20.790001,-184.869995,-21.77,1770467763.440137
0.03172,-0.196176,0.55754,-17.01,-177.660004,-44.73,1770467763.448142
0.19398,-0.173484,0.434564,-16.1,-164.429993,-15.82,1770467763.456222
0.254004,-0.074908,0.302072,-8.54,-154.559998,-15.82,1770467763.464156
0.344772,-0.023912,0.189832,1.47,-150.220001,20.440001,1770467763.472148
0.338184,-0.041236,0.121024,5.11,-136.009995,26.18,1770467763.480178
0.32086,-0.068808,0.035136,7.77,-118.019997,43.889999,1770467763.488223
0.291336,-0.0793,-0.061244,13.02,-94.5,41.02,1770467763.49615
0.258396,-0.084424,-0.136152,20.09,-66.010002,42.77,1770467763.504169
0.234484,-0.049532,-0.158112,30.1,-31.360001,40.950001,1770467763.512251
0.223992,0.005368,-0.089304,34.439999,5.74,37.169998,1770467763.520144
0.235704,0.068808,0.059292,40.880001,46.130001,35.07,1770467763.528191
0.25254,0.131028,0.293044,43.400002,86.379997,29.190001,1770467763.536133
0.283528,0.213988,0.665388,46.900002,128.380005,21.209999,1770467763.544183
0.296704,0.330132,1.0431,39.130001,168.630005,1.61,1770467763.55227
0.260592,0.415288,1.306376,33.740002,204.679993,-11.41,1770467763.560164
0.123952,0.42944,1.55916,20.860001,219.100006,-12.67,1770467763.568153
-0.036356,0.402112,1.805356,7.91,212.169998,-5.32,1770467763.576154
-0.35014,0.386252,2.149884,-13.02,189.350006,3.36,1770467763.584149
-0.70516,0.093208,2.2814,-15.75,152.179993,12.04,1770467763.59221
-0.985028,-0.073444,2.399252,3.43,101.639999,21.49,1770467763.600144
-1.169004,-0.20252,2.411208,11.97,54.950001,13.09,1770467763.608132
-1.148508,-0.24644,2.111576,4.97,20.51,-8.4,1770467763.616286
-1.04798,-0.242292,1.769,0.42,-0.14,-19.32,1770467763.624151
-0.92964,-0.224236,1.543544,-7.77,-5.11,-28.91,1770467763.632152
-0.833016,-0.199592,1.350052,-16.799999,-0.77,-42.630001,1770467763.640147
-0.747616,-0.166164,1.174616,-21.42,6.65,-48.09,1770467763.648156
-0.684908,-0.116876,0.99918,-26.809999,15.61,-51.799999,1770467763.656355
-0.635376,-0.066368,0.818132,-28.629999,19.18,-47.880001,1770467763.66416
-0.601704,-0.013908,0.66612,-28.0,17.709999,-56.07,1770467763.672236
-0.5551,0.01464,0.528504,-24.780001,11.06,-59.360001,1770467763.6802
-0.454572,0.049288,0.417972,-7.56,-2.1,-64.330002,1770467763.688153
-0.435784,0.038308,0.30866,0.14,-9.87,-61.810001,1770467763.696154
-0.414068,0.017324,0.242292,4.13,-19.040001,-63.98,1770467763.704154
-0.367708,0.0793,0.172508,12.46,-39.900002,-44.099998,1770467763.712244
-0.278648,0.106628,0.136152,20.440001,-51.450001,-47.32,1770467763.720158
-0.203008,0.1464,0.1403,22.469999,-66.779999,-35.139999,1770467763.728153
-0.175924,0.152744,0.141276,8.89,-93.870003,-24.99,1770467763.736149
-0.09028,0.17324,0.127368,0.56,-102.550003,-1.96,1770467763.744219
0.017812,0.153476,0.13786,9.66,-98.769997,1.47,1770467763.752182
0.125904,0.139812,0.154696,15.19,-95.480003,18.9,1770467763.76016
0.143228,0.185684,0.227896,22.33,-83.160004,24.290001,1770467763.76815
0.171044,0.244,0.401136,28.559999,-51.66,28.209999,1770467763.776149
0.223016,0.358436,0.650016,29.190001,-2.94,29.610001,1770467763.784161
0.227164,0.547292,1.01748,28.42,48.720001,25.9,1770467763.792177
0.15738,0.672708,1.403488,11.76,97.160004,26.32,1770467763.80015
-0.038064,0.734928,1.738988,-13.65,132.929993,20.23,1770467763.808134
-0.365268,0.654652,2.044232,-43.119999,152.880005,20.58,1770467763.816154
-0.755912,0.274988,2.25334,-41.790001,158.130005,29.190001,1770467763.82421
-1.117276,0.048068,2.268956,-8.12,137.270004,53.759998,1770467763.832153
-1.524512,-0.36234,2.220156,-10.36,116.760002,45.360001,1770467763.840167
-1.3725,-0.259372,1.921744,-11.13,82.18,26.530001,1770467763.848208
-1.41032,-0.345504,1.750456,-18.690001,38.290001,10.22,1770467763.856168
-1.362984,-0.458964,1.54208,-24.99,-7.14,-4.9,1770467763.864157
-1.238788,-0.482144,1.320772,-33.18,-55.299999,-26.809999,1770467763.872304
-1.042124,-0.542656,1.16022,-44.799999,-98.139999,-36.330002,1770467763.880149
-0.83814,-0.454328,0.981856,-41.09,-136.779999,-45.990002,1770467763.888153
-0.534848,-0.471896,0.892064,-26.110001,-153.440002,-38.919998,1770467763.896156
-0.301828,-0.382104,0.776896,-19.530001,-165.199997,-40.599998,1770467763.904203
-0.098332,-0.277916,0.67466,-6.58,-169.889999,-36.330002,1770467763.912156
0.049776,-0.171288,0.561444,-0.35,-170.729996,-22.049999,1770467763.920177
0.1281,-0.098576,0.449936,3.78,-172.339996,-19.74,1770467763.928162
0.213744,-0.083204,0.335012,0.14,-170.869995,2.38,1770467763.936146
0.284748,-0.054412,0.219356,2.1,-171.289993,7.56,1770467763.944147
0.352092,-0.055144,0.12688,12.25,-161.770004,21.209999,1770467763.952205
0.34404,-0.065392,0.019764,23.1,-141.75,35.490002,1770467763.960158
0.302316,-0.061244,-0.088084,31.99,-115.849998,39.619999,1770467763.968154
0.280112,-0.058072,-0.138592,34.509998,-81.550003,41.790001,1770467763.976467
0.251076,-0.042212,-0.110288,37.869999,-44.939999,45.5,1770467763.984279
0.245708,-0.012688,-0.005612,42.419998,-1.68,37.73,1770467763.992207
0.262056,0.003416,0.17446,43.119999,43.259998,33.389999,1770467764.000169
0.286212,0.056364,0.433588,48.299999,88.480003,25.48,1770467764.008141
0.295728,0.1098,0.783972,47.25,131.949997,16.73,1770467764.016153
0.279868,0.226188,1.057252,45.43,174.580002,3.29,1770467764.024173
0.22326,0.264984,1.377868,37.73,206.289993,-14.77,1770467764.032225
0.163968,0.269376,1.612596,27.23,224.0,-8.19,1770467764.040151
-0.101016,0.30744,1.979084,10.85,221.830002,-0.63,1770467764.048153
-0.34038,0.2318,2.411452,-10.08,200.130005,8.33,1770467764.056441
-0.618296,-0.004148,2.549068,4.97,170.380005,21.91,1770467764.064302
-0.79666,-0.145912,2.350452,15.96,120.959999,17.639999,1770467764.072152
-1.051884,-0.277428,2.189412,-2.66,89.599998,23.030001,1770467764.080148
-1.204872,-0.262056,1.82024,-8.12,70.980003,-1.12,1770467764.088143
-1.015284,-0.24034,1.594052,-22.26,54.740002,1.61,1770467764.096141
-1.011624,-0.223504,1.435452,-20.51,39.970001,-19.389999,1770467764.104146
-0.914024,-0.188368,1.322236,-29.33,38.43,-31.5,1770467764.112168
-0.870836,-0.132736,1.147532,-35.77,31.639999,-38.360001,1770467764.120143
-0.854,0.008296,0.923784,-51.73,7.98,-51.52,1770467764.12814
-0.788364,-0.010736,0.79666,-51.240002,-0.14,-48.580002,1770467764.136166
-0.743468,0.091256,0.6039,-38.990002,-4.48,-51.380001,1770467764.144164
-0.63074,0.116144,0.462868,-23.52,-13.02,-59.57,1770467764.152145
-0.53802,0.138592,0.352824,-12.81,-23.870001,-61.040001,1770467764.160164
-0.450668,0.15372,0.263276,-1.12,-36.82,-61.529999,1770467764.168146
-0.369904,0.178852,0.186172,8.33,-49.0,-59.080002,1770467764.176137
-0.280356,0.073444,0.169824,23.309999,-57.540001,-59.360001,1770467764.184132
-0.210816,0.207644,0.09638,28.629999,-68.040001,-36.330002,1770467764.192211
-0.160308,0.258396,0.103944,20.58,-83.370003,-53.549999,1770467764.200309
-0.089792,0.2928,0.115656,15.89,-87.779999,-31.15,1770467764.208127
0.052704,0.410896,0.09516,11.9,-105.209999,-25.9,1770467764.216143
0.110776,0.366732,0.144204,14.84,-118.230003,-9.66,1770467764.224143
0.132004,0.358924,0.17324,17.01,-114.449997,4.83,1770467764.23216
0.149572,0.352092,0.256688,19.74,-93.239998,11.34,1770467764.240177
0.158356,0.388692,0.435052,26.32,-53.900002,20.09,1770467764.248138
0.186416,0.454816,0.706868,32.060001,2.17,23.030001,1770467764.256168
0.194224,0.512644,1.029436,29.889999,63.98,28.98,1770467764.26415
0.087596,0.496784,1.35298,20.58,119.629997,37.099998,1770467764.272152
-0.134932,0.424072,1.763876,1.19,162.399994,40.669998,1770467764.280206
-0.514108,0.201544,2.229428,-4.34,185.919998,41.299999,1770467764.288227
-1.020896,0.069052,2.38266,16.309999,164.570007,56.700001,1770467764.296146
-1.71654,-0.303292,2.408768,7.07,138.389999,47.040001,1770467764.304147
-1.559892,-0.217648,2.09108,4.76,89.529999,22.26,1770467764.312149
-1.586,-0.346968,1.947608,-1.96,34.09,16.940001,1770467764.320148
-1.526952,-0.481656,1.803892,-11.97,-22.049999,-7.14,1770467764.328202
-1.360056,-0.553636,1.613328,-22.959999,-67.129997,-19.110001,1770467764.336158
-1.084336,-0.639768,1.446676,-34.439999,-104.790001,-33.32,1770467764.344155
-0.804468,-0.62098,1.250012,-41.860001,-135.869995,-46.549999,1770467764.352304
-0.522404,-0.534116,1.081408,-42.560001,-152.529999,-53.41,1770467764.360165
-0.269132,-0.4148,0.94184,-33.669998,-161.210007,-60.27,1770467764.36822
-0.062708,-0.285236,0.802516,-28.0,-169.679993,-55.650002,1770467764.37616
0.098576,-0.149328,0.682712,-17.43,-174.089996,-48.580002,1770467764.384198
0.173484,-0.044896,0.569496,-8.12,-169.119995,-44.450001,1770467764.39215
0.35014,-0.080032,0.48068,-11.2,-167.649994,-35.139999,1770467764.40015
0.392352,0.006344,0.332084,-6.02,-162.679993,-24.85,1770467764.408149
0.56852,0.144448,0.18178,6.23,-154.419998,3.85,1770467764.416192
0.468724,0.108824,0.11712,11.55,-145.320007,26.950001,1770467764.424229
0.440664,0.095648,0.025864,15.12,-125.860001,34.509998,1770467764.432154
0.406748,0.087108,-0.084424,17.290001,-100.449997,39.759998,1770467764.44014
0.371612,0.08296,-0.142008,22.120001,-63.209999,39.41,1770467764.448156
0.342332,0.09394,-0.130052,24.92,-20.93,37.029999,1770467764.456153
0.328424,0.120292,-0.0427,27.02,25.969999,37.099998,1770467764.46418
0.312076,0.155672,0.090524,28.77,71.400002,29.540001,1770467764.472145
0.283284,0.203496,0.30744,28.35,118.510002,23.73,1770467764.480148
0.301828,0.235948,0.597312,37.869999,161.490005,15.4,1770467764.488151
0.293776,0.212036,0.858392,44.240002,214.059998,3.29,1770467764.496146
0.253028,0.250588,1.066524,45.080002,252.210007,5.11,1770467764.504188
0.177876,0.25864,1.298812,39.060001,278.320007,-7.84,1770467764.512172
0.011468,0.238876,1.651392,21.629999,284.269989,6.09,1770467764.52015
-0.299144,0.231068,2.198928,4.97,274.470001,14.7,1770467764.528147
-0.672708,0.003904,2.52418,-0.35,234.639999,34.720001,1770467764.536135
-1.092388,-0.119804,2.500512,20.02,172.130005,56.349998,1770467764.544143
-1.343952,-0.308416,2.24358,7.98,125.300003,29.469999,1770467764.552195
-1.286124,-0.322812,1.868064,3.64,78.190002,25.41,1770467764.560234
-1.269532,-0.343064,1.625528,-4.06,46.830002,9.38,1770467764.568156
-1.242936,-0.34892,1.48962,-17.639999,30.73,4.2,1770467764.57618
-1.17242,-0.295484,1.358348,-27.440001,24.15,-11.34,1770467764.584151
-1.10776,-0.250344,1.206824,-40.880001,7.0,-27.16,1770467764.592323
-1.029436,-0.188612,1.058228,-44.099998,2.52,-38.220001,1770467764.60015
-0.925736,-0.104432,0.846924,-44.52,1.54,-52.290001,1770467764.608146
-0.835456,-0.018056,0.660264,-43.330002,-5.95,-62.16,1770467764.616182
-0.696864,-0.006588,0.565348,-35.77,-16.450001,-69.370003,1770467764.624147
-0.639524,0.060024,0.42578,-25.620001,-29.469999,-70.419998,1770467764.63226
-0.553148,0.100284,0.340136,-11.76,-41.860001,-71.470001,1770467764.640172
-0.46116,0.1464,0.25498,-2.31,-54.669998,-74.199997,1770467764.648146
-0.337452,0.179828,0.204228,8.47,-72.099998,-61.18,1770467764.656154
-0.26718,0.2257,0.149816,11.34,-86.449997,-54.18,1770467764.664183
-0.193248,0.267424,0.11224,12.11,-105.349998,-45.43,1770467764.672239
-0.13298,0.25864,0.114436,7.42,-118.580002,-48.580002,1770467764.680145
0.008052,0.269376,0.110532,3.78,-130.899994,-37.799999,1770467764.68815
0.194712,0.375516,0.106384,4.13,-147.350006,-10.71,1770467764.696149
0.181292,0.3538,0.164944,12.11,-143.429993,2.17,1770467764.704264
0.246684,0.3233,0.244244,19.879999,-124.18,14.98,1770467764.712188
0.261812,0.324276,0.366244,28.07,-85.889999,28.07,1770467764.720151
0.257664,0.378932,0.579744,43.68,-27.719999,28.98,1770467764.728149
0.240828,0.501664,0.8418,48.369999,43.049999,28.98,1770467764.736145
0.181536,0.637816,1.131672,41.09,108.639999,26.74,1770467764.744165
0.008296,0.644648,1.47864,21.559999,153.580002,26.879999,1770467764.752168
-0.330132,0.486048,1.9032,-1.54,191.380005,13.65,1770467764.760499
-0.731024,0.194712,2.193804,12.95,207.339996,17.43,1770467764.768263
-1.273924,0.088084,2.071804,32.970001,200.619995,38.990002,1770467764.776164
-1.512556,-0.213988,2.104012,20.790001,178.710007,30.309999,1770467764.784141
-1.545496,-0.345748,1.90808,16.66,125.720001,21.35,1770467764.792191
-1.600152,-0.40748,1.785836,4.2,63.279999,10.78,1770467764.800151
-1.539396,-0.490928,1.666276,-8.47,0.42,-7.35,1770467764.808143
-1.349564,-0.559004,1.488644,-28.35,-53.48,-23.73,1770467764.816186
-1.074332,-0.644648,1.334924,-37.169998,-94.010002,-29.82,1770467764.824173
-0.782508,-0.59292,1.147532,-42.349998,-114.309998,-45.639999,1770467764.832176
-0.502152,-0.495564,0.977708,-47.110001,-124.739998,-50.119999,1770467764.840293
-0.296216,-0.29158,0.811544,-45.990002,-139.020004,-53.900002,1770467764.84813
-0.138592,-0.12566,0.68198,-42.349998,-156.520004,-51.66,1770467764.856143
0.00122,-0.044652,0.593896,-34.650002,-172.199997,-38.849998,1770467764.864173
0.077104,-0.062708,0.515816,-27.790001,-177.660004,-29.190001,1770467764.872294
0.184464,-0.054412,0.394304,-26.459999,-183.889999,-15.4,1770467764.880144
0.242292,-0.00488,0.276452,-18.129999,-188.720001,-11.69,1770467764.888148
0.344528,0.1159,0.12444,-5.32,-192.639999,8.33,1770467764.896147
0.314272,0.054412,0.052216,2.1,-190.399994,15.12,1770467764.90415
0.321592,0.040016,-0.038552,4.2,-172.059998,18.9,1770467764.912198
0.323056,0.043432,-0.126392,9.03,-136.220001,24.709999,1770467764.920155
0.326716,0.048556,-0.137372,17.219999,-89.879997,22.120001,1770467764.928148
0.365512,0.01952,-0.032452,24.43,-31.43,24.5,1770467764.936146
0.435052,-0.0122,0.151768,38.009998,31.290001,21.91,1770467764.944149
0.476776,0.022204,0.431636,52.990002,89.949997,23.59,1770467764.952149
0.46848,0.1159,0.76372,60.200001,144.759995,18.200001,1770467764.960196
0.380396,0.210328,1.022116,66.849998,198.940002,8.96,1770467764.968171
0.325984,0.283772,1.26148,64.190002,244.369995,-5.25,1770467764.979978
0.194468,0.32818,1.523292,58.939999,247.729996,-8.89,1770467764.984424
-0.085156,0.382104,1.914424,38.009998,238.350006,0.21,1770467764.992319
-0.484096,0.325496,2.319952,23.450001,214.339996,9.59,1770467765.000176
-0.832772,0.101992,2.425848,28.91,157.919998,26.389999,1770467765.008148
-1.129232,0.06832,2.327028,15.12,96.879997,35.279999,1770467765.016155
-1.188036,-0.076616,2.048868,-5.11,54.880001,33.18,1770467765.024205
-1.102148,-0.234484,1.724836,-21.559999,27.860001,12.39,1770467765.032265
-1.038952,-0.325008,1.488156,-27.860001,20.860001,1.26,1770467765.040144
-0.986736,-0.357704,1.375184,-29.469999,26.389999,-12.32,1770467765.048143
-0.950868,-0.335744,1.256844,-32.689999,33.810001,-26.809999,1770467765.056134
-0.919636,-0.27328,1.102148,-36.889999,38.290001,-38.5,1770467765.06417
-0.888648,-0.21228,0.931592,-36.889999,37.869999,-51.939999,1770467765.072167
-0.835456,-0.151036,0.756888,-32.900002,34.16,-59.360001,1770467765.080153
-0.763964,-0.081984,0.621224,-24.43,22.540001,-70.839996,1770467765.088147
-0.685884,-0.022204,0.522404,-14.0,5.32,-72.940002,1770467765.096142
-0.6222,0.01098,0.416508,-6.02,-14.28,-75.32,1770467765.104148
-0.512156,0.013908,0.33916,5.95,-31.360001,-76.089996,1770467765.112186
-0.416508,0.045628,0.266448,14.0,-47.810001,-69.790001,1770467765.120143
-0.316956,0.10736,0.211548,19.110001,-66.57,-66.779999,1770467765.128141
-0.226432,0.175924,0.167628,18.059999,-86.029999,-54.529999,1770467765.136136
-0.154696,0.223748,0.157136,15.54,-106.260002,-47.25,1770467765.144144
-0.111508,0.212768,0.16104,5.53,-121.870003,-43.68,1770467765.152145
0.01098,0.21838,0.15006,-3.64,-129.149994,-30.24,1770467765.160181
0.237412,0.346236,0.146888,4.34,-142.729996,-12.32,1770467765.168153
0.143716,0.244732,0.238632,12.32,-132.580002,8.54,1770467765.176146
0.163968,0.231068,0.360388,24.01,-102.199997,24.360001,1770467765.184143
0.17446,0.269132,0.548268,37.240002,-51.380001,29.049999,1770467765.192132
0.18788,0.38918,0.843508,45.220001,12.53,31.15,1770467765.200171
0.163968,0.524844,1.185108,42.560001,78.050003,34.860001,1770467765.208255
0.01098,0.63928,1.521096,25.059999,130.270004,40.880001,1770467765.216169
-0.273524,0.58926,1.882216,5.25,161.839996,40.459999,1770467765.224125
-0.666364,0.347456,2.170136,0.91,175.139999,35.07,1770467765.232147
-1.144848,0.271328,2.061068,4.97,159.460007,43.330002,1770467765.24014
-1.406416,0.033184,2.063264,3.29,129.919998,38.779999,1770467765.248146
-1.524024,-0.165188,1.94468,-2.24,85.400002,25.620001,1770467765.256139
-1.595272,-0.292556,1.863672,-6.02,28.629999,8.82,1770467765.264195
-1.54086,-0.401868,1.711172,-16.1,-23.450001,-5.88,1770467765.272215
-1.3664,-0.506544,1.519144,-27.299999,-66.919998,-23.24,1770467765.280131
-1.086532,-0.593896,1.342,-39.759998,-104.860001,-34.790001,1770467765.288124
-0.801052,-0.56608,1.13582,-44.59,-136.360001,-45.360001,1770467765.29614
-0.529968,-0.511912,0.952088,-48.23,-160.229996,-47.25,1770467765.304153
-0.275964,-0.415044,0.797392,-41.02,-175.0,-48.09,1770467765.312132
-0.060268,-0.313296,0.674904,-32.689999,-180.529999,-42.209999,1770467765.320156
0.096136,-0.16104,0.555344,-19.530001,-182.770004,-29.82,1770467765.328169
0.196176,-0.089304,0.465796,-14.0,-179.759995,-19.459999,1770467765.336149
0.297436,-0.068076,0.372832,-6.65,-172.830002,-9.03,1770467765.344154
0.368196,-0.014396,0.23546,-1.33,-163.800003,-0.77,1770467765.35218
0.397476,0.020008,0.11468,6.44,-150.779999,12.6,1770467765.360327
0.397232,0.072224,0.00976,17.780001,-133.630005,31.219999,1770467765.368156
0.366732,0.066612,-0.053192,23.52,-110.18,33.669998,1770467765.376149
0.330864,0.077592,-0.109312,24.99,-81.550003,34.580002,1770467765.384152
0.299876,0.104188,-0.115656,24.85,-46.759998,26.950001,1770467765.392196
0.282552,0.130784,-0.040016,21.42,-10.71,27.16,1770467765.400155
0.277916,0.144936,0.100772,21.42,31.639999,25.620001,1770467765.408148
0.281332,0.152012,0.298656,28.77,76.93,16.379999,1770467765.416139
0.303048,0.13298,0.590724,31.780001,122.290001,22.120001,1770467765.42416
0.294508,0.168116,0.894504,32.619999,166.039993,11.27,1770467765.432146
0.262544,0.161772,1.199748,33.950001,211.470001,6.44,1770467765.440149
0.182756,0.11834,1.440332,28.35,240.729996,-0.21,1770467765.44815
0.021228,0.077104,1.65188,17.08,249.059998,4.62,1770467765.456204
-0.268888,0.066124,2.154276,8.75,238.910004,17.57,1770467765.464173
-0.546316,-0.103456,2.657892,18.9,197.610001,39.060001,1770467765.472157
-0.908412,-0.191784,2.606408,29.68,132.509995,50.959999,1770467765.480145
-1.268068,-0.38918,2.338496,7.35,79.870003,38.990002,1770467765.488172
-1.11386,-0.33916,1.893684,-3.92,41.439999,18.059999,1770467765.496151
-1.023336,-0.369416,1.603324,-11.2,24.85,9.66,1770467765.504229
-0.976976,-0.35014,1.4396,-18.9,24.709999,-2.24,1770467765.512131
-0.944524,-0.305,1.291004,-28.77,27.860001,-7.56,1770467765.520153
-0.912072,-0.243268,1.129476,-33.669998,31.85,-20.440001,1770467765.528147
-0.874008,-0.168116,0.926468,-38.5,33.880001,-26.459999,1770467765.536132
-0.794464,-0.1342,0.721264,-31.219999,32.619999,-28.629999,1770467765.544132
-0.779336,0.023424,0.543144,-21.42,24.5,-53.970001,1770467765.55218
-0.71736,0.172264,0.44286,-13.58,11.76,-54.880001,1770467765.560171
-0.622444,0.211304,0.4148,0.77,-1.26,-69.93,1770467765.568159
-0.553148,0.247416,0.349164,8.68,-13.79,-67.550003,1770467765.576152
-0.50142,0.293776,0.265716,17.639999,-27.23,-63.279999,1770467765.58415
-0.452376,0.308416,0.20252,21.77,-46.48,-66.989998,1770467765.5923
-0.388936,0.305,0.15372,21.35,-67.339996,-67.129997,1770467765.600147
-0.210816,0.400648,0.112972,25.549999,-93.870003,-53.900002,1770467765.608145
-0.11956,0.426756,0.133468,22.889999,-123.550003,-30.309999,1770467765.616136
-0.002684,0.462136,0.144936,21.49,-146.300003,-19.950001,1770467765.624187
0.047092,0.41724,0.153964,13.86,-160.649994,-4.69,1770467765.632286
0.079788,0.393572,0.195444,12.46,-156.869995,6.72,1770467765.640153
0.096624,0.387716,0.30378,17.360001,-135.449997,12.81,1770467765.648154
0.145912,0.408944,0.523868,22.540001,-90.860001,19.809999,1770467765.656149
0.2074,0.477996,0.837896,25.34,-30.59,25.059999,1770467765.664341
0.199592,0.532164,1.213168,20.58,35.07,27.440001,1770467765.672152
0.12566,0.564616,1.606496,10.78,95.410004,33.950001,1770467765.680149
-0.122488,0.502884,1.997384,-8.19,137.619995,28.629999,1770467765.688172
-0.506788,0.24766,2.304824,-15.47,161.910004,27.299999,1770467765.696286
