acc_x,acc_y,acc_z,gyro_x,gyro_y,gyro_z,timestamp
2.5196421977999996,-0.5479563754,9.7603233854,-0.08552113334772216,-0.2431243648028101,0.08674286382411818,1756821128.553343
2.5890340532000002,-0.6340979889999999,9.6167540294,-0.09285151620609834,-0.27611108766550296,0.10262536001726658,1756821128.561446
2.8977081686,-0.8231309743999999,9.611968384199999,-0.03298672286269283,-0.33719761148530447,0.010995574287564275,1756821128.569449
3.0173492986,-0.9260223461999999,9.5282195932,-0.009773843811168246,-0.3262020546510327,0.040317105721069016,1756821128.577444
3.3834511563999996,-1.100698396,9.5330052384,0.029321531433504737,-0.34819320322616126,-0.03665191429188092,1756821128.585472
3.5820554322,-1.100698396,9.559326287,0.05619960191421741,-0.31154127148098787,-0.02199114857512855,1756821128.593417
3.6969109169999994,-1.0791629926,9.633503787599999,0.08307767239493008,-0.26633724385433466,-0.03787364476827695,1756821128.601451
3.7878381757999997,-0.9714859755999999,9.690931529999999,0.0879645943005142,-0.1881464933649887,-0.05131268000863329,1756821128.609455
3.6945180944,-0.8662017812,9.7459664498,0.05009094953223726,-0.10506882097005864,0.013439035240356337,1756821128.617456
3.6897324492,-0.7920242806,9.8153583052,0.05253441048502932,-0.048869219055841226,-0.007330382858376184,1756821128.625441
3.5246276898,-0.8015955709999999,9.7914300792,0.013439035240356337,0.0012217304763960308,0.05375614096142535,1756821128.633509
3.4719855926,-0.8638089586,9.7220382238,0.013439035240356337,0.024434609527920613,0.030543261909900768,1756821128.641453
3.3116664784,-0.8997012976000001,9.6598248362,0.026878070480712675,0.04642575810304917,0.0317649923862968,1756821128.649440
3.2614172037999998,-0.9834500885999999,9.702895643,0.009773843811168246,0.025656340004316644,0.024434609527920613,1756821128.657452
3.1489545415999998,-0.9523433948,9.6382894328,0.012217304763960306,0.03298672286269283,0.01832595714594046,1756821128.665446
3.1441688964,-0.9834500885999999,9.678967416999999,0.05253441048502932,0.026878070480712675,0.013439035240356337,1756821128.673445
3.0293134116,-0.8853443619999999,9.6382894328,0.026878070480712675,0.007330382858376184,0.028099800957108706,1756821128.681425
3.0747770409999995,-0.8662017812,9.6598248362,0.03298672286269283,0.004886921905584123,-0.0012217304763960308,1756821128.689441
2.9886354274,-0.7896314579999999,9.5880401582,0.01710422666954443,0.004886921905584123,-0.024434609527920613,1756821128.697468
2.9934210726,-0.7824529901999999,9.5904329808,0.02199114857512855,-0.01710422666954443,-0.024434609527920613,1756821128.705436
2.9168507493999996,-0.7369893607999999,9.5521478192,-0.009773843811168246,-0.0024434609527920616,-0.029321531433504737,1756821128.713475
2.9599215562,-0.7848458128,9.5018985446,0.013439035240356337,-0.009773843811168246,-0.028099800957108706,1756821128.721419
3.0484559924,-0.8949156524,9.4899344316,0.05009094953223726,-0.05253441048502932,-0.05742133239061344,1756821128.729457
3.1585258319999996,-0.8877371845999998,9.5401837062,0.06597344572538566,-0.05497787143782138,-0.06719517620178168,1756821128.737460
3.2279176873999997,-0.9164510557999999,9.547362174,0.12461650859239512,-0.039095375244672985,-0.09407324668249435,1756821128.745442
3.2685956715999995,-0.8781658942,9.513862657599999,0.09407324668249435,-0.04276056667386108,-0.10262536001726658,1756821128.753408
3.3427731722,-0.8949156524,9.5066841898,0.10506882097005864,-0.05131268000863329,-0.09529497715889039,1756821128.761455
3.3236305913999997,-0.8901300072,9.518648302799999,0.09896016858807849,0.003665191429188092,-0.08307767239493008,1756821128.769432
3.3786655112,-0.9547362173999999,9.559326287,0.10873401239924674,0.007330382858376184,-0.08918632477691024,1756821128.777447
3.2015966387999995,-0.9906285563999999,9.6717889492,0.07086036763096977,0.06963863715457375,0.008552113334772215,1756821128.785458
3.1992038162,-1.0384850084,9.8249295956,0.079412480965742,0.048869219055841226,-0.004886921905584123,1756821128.793424
2.9886354274,-0.9858429112,9.798608546999999,0.03665191429188092,0.05619960191421741,0.010995574287564275,1756821128.801439
2.8331019584,-1.0241280728,9.7363951594,0.039095375244672985,0.026878070480712675,-0.012217304763960306,1756821128.809466
2.7780670385999997,-0.9427721043999999,9.643075077999999,-0.03298672286269283,-0.012217304763960306,0.028099800957108706,1756821128.817407
2.5986053435999996,-0.8997012976000001,9.5521478192,-0.048869219055841226,-0.05375614096142535,0.040317105721069016,1756821128.825426
2.6512474407999997,-0.7585247641999999,9.499505721999999,-0.05253441048502932,-0.07452555906015787,0.0757472895365539,1756821128.833412
2.6823541345999997,-0.5240281494,9.3607220112,-0.07086036763096977,-0.11484266478122689,0.028099800957108706,1756821128.841433
2.7110680057999996,-0.37328032559999996,9.3367937852,-0.048869219055841226,-0.14782938764391973,0.06963863715457375,1756821128.849423
2.7302105865999997,-0.3302095188,9.3056870914,-0.06230825429619756,-0.19058995431778078,0.061086523819801536,1756821128.857484
2.8211378453999996,-0.3326023414,9.365507656399998,-0.04642575810304917,-0.20036379812894903,-0.004886921905584123,1756821128.865414
2.9407789753999998,-0.4378865357999999,9.4301138666,-0.025656340004316644,-0.21013764194011728,-0.01710422666954443,1756821128.873445
3.0245277664,-0.5288137946,9.511469835,-0.007330382858376184,-0.20158552860534507,-0.0317649923862968,1756821128.881403
3.1417760737999996,-0.6173482307999999,9.5904329808,0.013439035240356337,-0.21624629432209744,-0.009773843811168246,1756821128.889459
3.2398818003999996,-0.7393821834,9.7005028204,0.03665191429188092,-0.20036379812894903,-0.024434609527920613,1756821128.897427
3.2829526072,-0.813559684,9.7818587888,0.02076941809873252,-0.1637118838370681,0.01710422666954443,1756821128.905461
3.3116664784,-0.849452023,9.812965482600001,0.01710422666954443,-0.1710422666954443,0.01710422666954443,1756821128.913436
3.2709884942,-0.9188438783999999,9.7794659662,-0.003665191429188092,-0.15393804002589986,0.014660765716752368,1756821128.921420
3.2877382523999996,-0.9643075078,9.8153583052,0.0158824961931484,-0.13194689145077132,0.059864793343405505,1756821128.929451
3.2135607518,-0.9882357338,9.7651090306,0.02076941809873252,-0.15027284859671178,0.04276056667386108,1756821128.937455
3.2039894614,-1.0145567824,9.690931529999999,0.009773843811168246,-0.1514945790731078,0.06963863715457375,1756821128.945425
3.2685956715999995,-1.0576275892,9.6837530622,0.02076941809873252,-0.18692476288859272,0.014660765716752368,1756821128.953456
3.4025937371999997,-1.0504491214,9.674181771799999,0.03298672286269283,-0.20036379812894903,-0.01832595714594046,1756821128.961465
3.5844482548,-1.0384850084,9.6598248362,0.10629055144645466,-0.22479840765686965,-0.03665191429188092,1756821128.969441
3.7112678526,-0.8685946038,9.595218626,0.11239920382843482,-0.19669860669976094,-0.09285151620609834,1756821128.977463
3.8787654345999996,-0.7274180704000001,9.523433948,0.14905111812031574,-0.16126842288427606,-0.079412480965742,1756821128.985427
3.9385859995999994,-0.5766702466,9.4707918508,0.13439035240356337,-0.08918632477691024,-0.059864793343405505,1756821128.993897
3.900300838,-0.5192425042,9.4085784632,0.1282817000215832,-0.025656340004316644,-0.10262536001726658,1756821129.001463
3.9098721283999995,-0.5862415369999999,9.439685157,0.16493361431346412,0.06230825429619756,-0.06719517620178168,1756821129.009421
3.9338003543999998,-0.6747759731999999,9.4971128994,0.14049900478554353,0.1356120828799594,-0.13805554383275148,1756821129.017458
3.8691941441999997,-0.7322037155999999,9.544969351399999,0.17226399717184032,0.19058995431778078,-0.13072516097437528,1756821129.025434
3.7902309983999998,-0.7393821834,9.5425765288,0.18570303241219668,0.2345722514680379,-0.13072516097437528,1756821129.033404
3.649054465,-0.71784678,9.6358966102,0.17837264955382048,0.2700024352835228,-0.1282817000215832,1756821129.041462
3.505485109,-0.6484549246,9.678967416999999,0.1710422666954443,0.2907718533822553,-0.09651670763528643,1756821129.049422
3.2685956715999995,-0.562313311,9.6574320136,0.12217304763960307,0.30421088862261164,-0.05742133239061344,1756821129.057431
3.0987052669999997,-0.6317051664,9.7292166916,0.06230825429619756,0.2907718533822553,-0.05619960191421741,1756821129.065460
2.9838497821999996,-0.7298108929999999,9.8057870148,0.0757472895365539,0.2700024352835228,-0.04153883619746504,1756821129.073418
3.0101708308,-0.8853443619999999,9.851250644199999,0.11239920382843482,0.20769418098732523,-0.07330382858376185,1756821129.081436
3.038884702,-0.9667003303999999,9.9086783866,0.158824961931484,0.16126842288427606,-0.1356120828799594,1756821129.089460
2.9192435719999996,-1.0217352502,9.798608546999999,0.16126842288427606,0.12950343049797924,-0.10506882097005864,1756821129.097434
2.8594230069999997,-0.9212367009999999,9.592825803399998,0.18448130193580065,0.12217304763960307,-0.06475171524898962,1756821129.105470
2.7661029256,-0.8542376682,9.442077979599999,0.14416419621473162,0.08552113334772216,-0.08429940287132612,1756821129.113443
2.8881368781999996,-0.7106683122,9.365507656399998,0.16493361431346412,0.0439822971502571,-0.07330382858376185,1756821129.121447
2.9503502658,-0.6484549246,9.437292334399999,0.18936822384138474,0.035430183815484885,-0.10140362954087054,1756821129.129405
3.1058837348,-0.550349198,9.5258267706,0.18081611050661253,-0.0024434609527920616,-0.11606439525762292,1756821129.137468
3.0891339766,-0.4642075844,9.549754996599999,0.17226399717184032,0.03665191429188092,-0.11972958668681101,1756821129.145432
3.1226334929999995,-0.38763726119999997,9.592825803399998,0.1942551457469689,0.039095375244672985,-0.1282817000215832,1756821129.153429
3.1920253484,-0.3397808092,9.705288465599999,0.1881464933649887,0.05253441048502932,-0.10506882097005864,1756821129.161419
3.4073793824,-0.2129612114,9.8249295956,0.28710667940635975,0.0439822971502571,-0.16859880574265224,1756821129.169486
3.6921252717999997,-0.1651047594,10.073783145999998,0.3824016391119576,0.023212879051524585,-0.23945917337362202,1756821129.177408
3.7974094662,0.0167497582,10.2843515348,0.5009095127756651,0.014660765716752368,-0.26633724385433466,1756821129.185435
3.9481572899999997,0.0765703232,10.430313713399999,0.614530412173911,0.040317105721069016,-0.339641054984804,1756821129.193438
4.2376888246,0.6412764568,10.4757773428,0.7684684521998107,0.01710422666954443,-0.43249260609748735,1756821129.201473
4.2448672923999995,0.7010970218,10.6767744412,0.8869763258635183,0.079412480965742,-0.42394049276271517,1756821129.209456
4.127618985,1.0528419439999999,10.274780244399999,0.8405505677604691,0.158824961931484,-0.37018431689470477,1756821129.217461
4.0845481781999995,1.1868400096,9.7340023368,0.6927211626632569,0.23823744289722598,-0.31154127148098787,1756821129.225411
3.9266218865999996,1.2275179938,9.006584266399999,0.4886921905584123,0.29321529688175485,-0.2675589743307307,1756821129.233406
3.7950166436,1.040877831,8.4777704718,0.27611108766550296,0.3909537524467298,-0.21991148575128552,1756821129.241429
3.7184463204,0.8997012976000001,8.3007015994,0.1514945790731078,0.48624874705891274,-0.1514945790731078,1756821129.249430
3.5868410774,0.8518448456,8.2767733734,0.003665191429188092,0.5766568023122189,-0.12461650859239512,1756821129.257420
3.5605200288,0.6388836341999999,8.525626923799999,-0.12461650859239512,0.678060379493212,-0.08307767239493008,1756821129.265414
3.5437702706,0.406779842,9.121439751199999,-0.09651670763528643,0.7012732934513216,-0.11606439525762292,1756821129.273427
3.5509487383999994,-0.1292124204,9.9804630646,-0.026878070480712675,0.7513642255302664,-0.158824961931484,1756821129.281406
3.3714870433999997,-0.23928226,10.4901342784,0.07696902001294993,0.8148942103028599,-0.14049900478554353,1756821129.289451
3.026920589,-0.12442677519999999,10.461420407199999,0.11239920382843482,0.860098237929513,-0.12217304763960307,1756821129.297405
2.5938196984,-0.167497582,10.229316614999998,0.08552113334772216,0.9040805350797702,-0.0158824961931484,1756821129.305422
2.2803599377999997,-0.040677984199999996,9.848857821600001,0.06597344572538566,0.8796459779117272,-0.040317105721069016,1756821129.313409
2.0841484845999996,-0.011964112999999998,9.8153583052,0.09529497715889039,0.8454374722127607,-0.079412480965742,1756821129.321409
1.8903298539999998,0.1339980656,9.7914300792,0.14538592669112765,0.7745771394883759,-0.10995574287564276,1756821129.329398
1.9357934833999997,0.3780659708,9.9206424996,0.23701571242082994,0.6841690842350697,-0.26389378290154264,1756821129.337406
1.902293967,0.4474578262,10.1240324206,0.3005456797401311,0.6304129083670593,-0.26633724385433466,1756821129.345451
1.8400805794,0.4618147618,10.025926693999999,0.28710667940635975,0.6084217946985158,-0.3347541505325124,1756821129.353423
1.7611174335999997,0.46899322959999995,9.8440721764,0.2577851305195625,0.5852088807404061,-0.30421088862261164,1756821129.361450
1.6055839646,0.490528633,9.4301138666,0.16126842288427606,0.577878532788615,-0.2919935838586513,1756821129.369429
1.6342978357999998,0.2656033086,9.3104727366,0.10140362954087054,0.5338962181850654,-0.28099800957108706,1756821129.377402
1.3830514628,0.1746760498,9.3463650756,0.02199114857512855,0.5265658353266892,-0.2223549467040776,1756821129.385407
1.3040883169999997,-0.0430708068,9.5330052384,0.013439035240356337,0.5070181302510602,-0.2064724505109292,1756821129.393433
1.1198409768,-0.0861416136,9.7172525786,-0.01710422666954443,0.4776966337241405,-0.1710422666954443,1756821129.401759
0.9427721043999999,-0.1387837108,10.04985492,0.014660765716752368,0.4667010419832837,-0.20036379812894903,1756821129.409424
0.7920242806,-0.0765703232,10.274780244399999,-0.0024434609527920616,0.42149701435663056,-0.1832595714594046,1756821129.417446
0.669990328,0.014356935599999999,10.4279208908,-0.0158824961931484,0.35552358608453744,-0.1881464933649887,1756821129.425445
0.550349198,0.20578274359999998,10.5595261338,-0.02076941809873252,0.21380283336930536,-0.19058995431778078,1756821129.433427
0.5264209719999999,0.4043870194,10.569097424199999,-0.009773843811168246,0.06230825429619756,-0.2528982086139784,1756821129.441422
0.5168496816,0.6364908116,10.480562987999999,-0.026878070480712675,-0.09529497715889039,-0.26145032194875056,1756821129.449447
0.5479563754,0.7680960546,10.181460162999999,-0.039095375244672985,-0.2736676267127109,-0.3152064454568834,1756821129.457443
0.7369893607999999,0.8925228297999999,9.923035322199999,-0.0317649923862968,-0.3824016391119576,-0.3249803241746367,1756821129.465453
0.9427721043999999,0.8039883936,9.8632147572,-0.01710422666954443,-0.4630358680073881,-0.3860668479944382,1756821129.473406
1.2107682356,0.6508477471999999,9.8177511278,-0.05253441048502932,-0.48624874705891274,-0.3933972308528144,1756821129.481406
1.5050854154,0.4354937132,9.8967142736,0.02076941809873252,-0.5021312257987686,-0.39828413530510604,1756821129.489415
1.7180466267999999,0.28474588939999995,9.822536773,-0.010995574287564275,-0.4728096943652639,-0.46792275500638725,1756821129.497461
1.8544375149999999,0.19142580799999998,9.511469835,0.02199114857512855,-0.47525315531805595,-0.4520402762665313,1756821129.505465
1.8735800958,0.11724830739999999,8.9419780562,0.06963863715457375,-0.4642575810304917,-0.40317105721069013,1756821129.513406
1.9118652573999997,0.08135596839999999,8.470592003999998,0.13316862192716733,-0.4776966337241405,-0.4386012235728825,1756821129.521400
2.0171494518,-0.057427742399999995,8.434699665,0.31398473243377983,-0.4899139210348083,-0.4386012235728825,1756821129.529429
1.9716858224,-0.19142580799999998,8.604590069599999,0.318871654339364,-0.4667010419832837,-0.44104470197896706,1756821129.537394
1.7874384822,-0.6652046828,8.697910150999999,0.19058995431778078,-0.37140608227768585,-0.33719761148530447,1756821129.545396
1.2370892842,-1.2179467034,8.1643107112,-0.23945917337362202,-0.2516764781375823,-0.10384709049366261,1756821129.553392
1.0671988796,-1.1198409768,7.5948189324,-0.3640756994193097,-0.26633724385433466,0.0,1756821129.561454
1.3854442854,-1.2107682356,8.5112699882,-0.14538592669112765,-0.4007275788046055,-0.1466076571675237,1756821129.569407
1.7204394494,-0.9882357338,10.0163554036,0.16615534478986016,-0.5290092788261888,-0.2748893571891069,1756821129.577409
1.9764714676,-0.5120640364,10.8825571848,0.36529741244241315,-0.6243042734383717,-0.3995058483282095,1756821129.585426
2.2085752598,-0.0167497582,11.052447589399998,0.4874704600820162,-0.7257079378858273,-0.4251622232391112,1756821129.593408
2.4693929231999996,0.5048855686,10.6815600864,0.4899139210348083,-0.8283332455432163,-0.47647486834115943,1756821129.601560
2.6895326024,0.873380249,10.133603711,0.4251622232391112,-0.9053022655561662,-0.4288273972150068,1756821129.609426
2.9647072013999995,1.2059825903999999,9.705288465599999,0.4019493441875866,-0.9517280236592153,-0.4447098934081552,1756821129.617500
3.2757741393999997,1.5074782379999998,9.442077979599999,0.3530801076784529,-0.9786061115932205,-0.3946189613292104,1756821129.625413
3.6394831746,1.7802600144,9.4683990282,0.3530801076784529,-0.9822712855691161,-0.37995817815916555,1756821129.633410
4.010370677599999,1.9070796122,9.6382894328,0.3420845333908886,-0.9700540331650334,-0.3872885784708342,1756821129.641461
4.3238304382,2.1320049365999996,9.7435736272,0.22357667718047364,-0.9480628496833198,-0.2309070600388498,1756821129.649421
4.560719875599999,2.3880369548,9.9349994352,0.07330382858376185,-0.9101892398216279,-0.1832595714594046,1756821129.657421
4.6995035864,2.416750826,10.013962581,-0.0916297857297023,-0.8466591852358643,-0.028099800957108706,1756821129.665444
4.7258246349999995,2.5292134882,9.848857821600001,-0.3103195584578843,-0.7440338775784752,0.13683381335635544,1756821129.673419
4.7282174576,2.5746771176,9.8751788702,-0.39584067435231396,-0.6646214140660257,0.27611108766550296,1756821129.681445
4.689932295999999,2.5339991334,10.1120683076,-0.42394049276271517,-0.5705481150236538,0.35674531656093345,1756821129.689446
4.7282174576,2.5603201819999994,10.2987084704,-0.3530801076784529,-0.4740314248416599,0.359188760060433,1756821129.697451
4.718646167199999,2.5794627627999995,10.3322079868,-0.2504547476611863,-0.39828413530510604,0.3518583772020568,1756821129.705446
4.6755753604,2.6584259086,10.200602743800001,-0.18692476288859272,-0.33231070703301285,0.34697143784318024,1756821129.713475
4.555934230399999,2.787638329,10.200602743800001,-0.13805554383275148,-0.29688050576423547,0.378736465136062,1756821129.721423
4.4075792292,3.0987052669999997,10.1958170986,-0.19058995431778078,-0.28710667940635975,0.378736465136062,1756821129.729459
4.3597227772,3.4265219632,10.121639597999998,-0.2272418686096617,-0.278554548618295,0.36041049053682905,1756821129.737446
4.3238304382,3.4241291405999994,10.2436735506,-0.26389378290154264,-0.26633724385433466,0.28466318354698267,1756821129.745772
4.283152454,3.4863425282,10.222138147199999,-0.339641054984804,-0.21746802479849348,0.24801128670839426,1756821129.753411
4.2616170506,3.3355947043999996,9.9708917742,-0.40317105721069013,-0.16126842288427606,0.2553416695667704,1756821129.761430
4.307080679999999,3.1848468806,9.812965482600001,-0.4459316064312587,-0.1282817000215832,0.16982053621904827,1756821129.769484
4.3573299546,3.0053851856,9.7651090306,-0.4740314248416599,-0.10140362954087054,0.1954768762233649,1756821129.777420
4.3764725354,2.9120651042,9.7076812882,-0.5119050696099369,-0.079412480965742,0.1551597705022959,1756821129.785497
4.4243289874,2.6967110702,9.7076812882,-0.5167920089688135,-0.08429940287132612,0.17715091907742445,1756821129.793438
4.362115599799999,2.4909283265999997,9.5617191096,-0.5338962181850654,-0.09040805525330627,0.2064724505109292,1756821129.801426
4.4195433422,2.4622144554000003,9.6215396746,-0.5167920089688135,-0.0916297857297023,0.19792033717615698,1756821129.809443
4.4099720518,2.1176480009999996,9.5880401582,-0.46792275500638725,-0.029321531433504737,0.21746802479849348,1756821129.817439
4.2305103568,1.5864413838,8.7074814414,-0.44837510229063576,0.09529497715889039,0.20036379812894903,1756821129.825434
4.007977855,0.7465606511999999,7.3651079628,-0.3518583772020568,0.2724458962363148,0.23945917337362202,1756821129.833412
3.7591243046,-0.23928226,6.317051663999999,-0.18692476288859272,0.37140608227768585,0.20280725908174108,1756821129.841469
3.7016965622,-0.9978070242,6.403193277599999,0.0,0.4422664324553631,0.16982053621904827,1756821129.849418
3.840480273,-1.5050854154,7.623532803599999,0.13805554383275148,0.5033529562751646,0.12461650859239512,1756821129.857449
4.2664026958,-1.447657673,9.128618219,0.16493361431346412,0.4935791299172889,0.061086523819801536,1756821129.865426
4.689932295999999,-1.0624132344,10.7581304096,0.19792033717615698,0.4776966337241405,0.09529497715889039,1756821129.873414
4.876572458799999,-0.215354034,12.141181872399999,0.07819075048934597,0.4251622232391112,0.08307767239493008,1756821129.881428
4.7353959254,0.47377887479999997,12.658031553999999,-0.21135937241651329,0.4715879638888678,0.22968532956245377,1756821129.889447
4.3501514868,0.8446663778,11.868400095999998,-0.4129449010218584,0.6084217946985158,0.24556782575560218,1756821129.897443
3.7232319655999997,0.71784678,10.3393864546,-0.5216788959678126,0.8161159233259635,0.39828413530510604,1756821129.905470
2.9838497821999996,0.6317051664,9.5641119322,-0.5510004448546099,0.9663887893759677,0.555887366760194,1756821129.913427
2.3138594541999997,0.7393821834,9.655039190999998,-0.596204472481263,1.0616838188947357,0.7024950239277177,1756821129.921473
1.7012968685999998,1.4141581565999999,10.0881400816,-0.5497787143782138,1.0616838188947357,0.7892379052051284,1756821129.929466
1.3328021881999998,2.2564317118,10.7126667802,-0.5473352708787143,1.0042624690508297,0.801455157609211,1756821129.937423
1.1676974288,2.715853651,10.9016997656,-0.6194173864393725,0.9114109528447315,0.8674286556944744,1756821129.945439
0.8087740388,2.6392833278,10.181460162999999,-0.8075638448977763,0.7806857744170635,1.0714576103460265,1756821129.953413
0.48574298779999997,2.6057838114,9.056833541,-0.896750187127979,0.6047566207226203,1.174082935456708,1756821129.961449
0.49531427819999996,2.679961312,8.568697730599999,-0.9065239960325623,0.39584067435231396,1.160643952576229,1756821129.969442
0.4618147618,2.4023938904,8.930013943199999,-0.775798869964772,0.20158552860534507,1.1117747509736804,1756821129.977431
0.490528633,2.1702900981999997,9.389435882399999,-0.755029399506162,0.0879645943005142,1.0812314890637797,1756821129.985425
0.5335994398,2.189432679,9.6454679006,-0.7244861375962612,0.05619960191421741,1.0005972950749342,1756821129.993416
0.6867400862,1.4045868661999998,10.0187482262,-0.7916813661579204,0.023212879051524585,0.8454374722127607,1756821130.001426
0.9954142015999999,1.0073783146,10.159924759599999,-0.7342600163140145,-0.02199114857512855,0.6976081194754261,1756821130.009443
1.3591232368,0.7082754896,10.2819587122,-0.6902777017104648,-0.08063421144213803,0.5057964172279568,1756821130.017453
1.5649059803999998,0.2823530668,10.2723874218,-0.6475171175833112,-0.1282817000215832,0.3848450826114571,1756821130.025433
1.8017954178,0.2536391956,10.04985492,-0.5742133588127195,-0.1637118838370681,0.37140608227768585,1756821130.033470
1.8065810629999999,0.2440679052,9.8991070962,-0.6120869686744114,-0.21746802479849348,0.34452799434368064,1756821130.041420
1.8975083218,0.05503491979999999,9.954142015999999,-0.6169738556734105,-0.27611108766550296,0.24678955623199822,1756821130.049424
2.1391834043999998,-0.41156548719999997,10.0354979844,-0.6023130899566581,-0.34819320322616126,0.08307767239493008,1756821130.057458
2.4023938904,-1.3136596073999998,9.9445707256,-0.6108652381980153,-0.36896258641830876,-0.07819075048934597,1756821130.065429
2.7302105865999997,-1.8400805794,9.5665047548,-0.5729916283363234,-0.36529741244241315,-0.2590068609959585,1756821130.073422
3.0723842184,-1.3686945272,9.0735832992,-0.44104470197896706,-0.29443706226473587,-0.4288273972150068,1756821130.081441
3.290131075,-0.2560320182,8.5399838594,-0.318871654339364,-0.1111774733520388,-0.5070181302510602,1756821130.089457
3.1441688964,0.7082754896,7.826922724599999,-0.24801128670839426,0.024434609527920613,-0.5681046540708617,1756821130.097465
2.5962125209999996,1.4620146085999999,7.1808606226,-0.29688050576423547,0.06963863715457375,-0.6914994321868608,1756821130.105451
2.189432679,1.9740786449999999,7.3794648984,-0.2993239667170275,0.1954768762233649,-0.7965682531569196,1756821130.113463
1.8137595307999999,2.9407789753999998,8.154739420799999,-0.2272418686096617,0.4007275788046055,-0.8368853937845735,1756821130.121446
1.3136596073999998,2.9288148623999994,9.664610481399999,-0.2565634000431664,0.6194173864393725,-0.7941248096574199,1756821130.129405
1.0552347666,1.0265208954,10.5667046016,-0.498466016916288,0.49113563405791183,-0.9077457090556658,1756821130.137431
0.8757730715999998,-0.7537391189999999,9.753144917599998,-0.5668829410477582,0.16126842288427606,-0.9272934490378798,1756821130.145456
0.8279166196,-1.8759729183999998,8.2983087768,-0.3262020546510327,-0.2431243648028101,-0.9199630312729187,1756821130.153409
1.1581261384,-3.1010980895999998,7.5158557865999995,-0.1710422666954443,-0.8038986709218807,-0.8906414998394138,1756821130.161421
2.1367905817999997,-4.5367916496,8.082954742799998,-0.08185594191853406,-1.3891074818491167,-0.8747590036462655,1756821130.169467
3.5294133349999997,-5.156532702999999,9.200402897,0.10629055144645466,-1.8570303590285517,-0.9468411192069238,1756821130.177420
5.060819798999999,-5.0177489922,10.8227366198,0.21624629432209744,-2.079385253372752,-0.9016370915802706,1756821130.185442
6.5036918268,-4.6444686666,11.7822584824,0.21868975527488949,-2.1050416282836535,-0.8063421318746727,1756821130.193420
7.7240313528,-4.4697926167999995,11.313265252799999,0.13439035240356337,-2.036624739058768,-0.8454374722127607,1756821130.201437
8.604590069599999,-4.3142591478,10.16949605,0.05009094953223726,-1.8191567317135673,-0.7904596356815243,1756821130.209439
9.104689993,-3.924229064,9.169296203199998,0.08307767239493008,-1.5088370859892202,-0.7880161921820248,1756821130.217429
9.3942215276,-3.4815568829999997,8.590233134,0.039095375244672985,-1.0604620186051696,-0.7745771394883759,1756821130.225464
9.5736832226,-2.9503502658,8.288737486399999,0.08918632477691024,-0.5607743061190706,-0.7562511997957281,1756821130.233403
9.427721044,-2.3425733254,8.329415470599999,0.048869219055841226,-0.009773843811168246,-0.7965682531569196,1756821130.241406
9.037690960199999,-1.8065810629999999,8.583054666199999,0.03665191429188092,0.5510004448546099,-0.7220426940967616,1756821130.249433
8.3940216808,-1.3950155757999998,8.8247297488,0.0024434609527920616,1.0555751316061706,-0.7086036414031127,1756821130.257416
7.4967132058,-1.0695917021999999,9.1501536224,-0.07208209810736581,1.5222761910427467,-0.6438519436074157,1756821130.265432
6.5012990042,-0.7393821834,9.655039190999998,-0.11606439525762292,1.8741344984316335,-0.5400048880203381,1756821130.273404
5.252245606999999,-0.40917266459999996,10.351350567599999,-0.17837264955382048,2.106263341306757,-0.5009095127756651,1756821130.281429
3.984049629,-0.2799602442,10.660024683,-0.2516764781375823,2.24676227627913,-0.4153883445213579,1756821130.289421
2.703889538,-0.4642075844,10.384850083999998,-0.2675589743307307,2.266310138434392,-0.41661010990433894,1756821130.297437
1.5122638832,-0.6747759731999999,10.1742816952,-0.24556782575560218,2.2137755534164376,-0.3335324375094089,1756821130.305428
0.47856452,-0.6891329088,10.2364950828,-0.158824961931484,2.034181295559269,-0.33108894165003183,1756821130.313436
-0.3900300838,-0.6053841178,10.1671032274,-0.05253441048502932,1.783726443178327,-0.2993239667170275,1756821130.321407
-1.1270194446,-0.4043870194,9.803394192199999,0.01710422666954443,1.4672983021516328,-0.24923301718479024,1756821130.329429
-1.6295121905999999,-0.0167497582,9.458827737799998,0.09896016858807849,1.0433578093889175,-0.29565879274113194,1756821130.337405
-1.8807585636,0.5455635528,9.446863624799999,0.11239920382843482,0.5839871502640102,-0.28832839242946323,1756821130.345402
-1.8305092889999999,1.1892328321999999,9.427721044,0.10873401239924674,0.08552113334772216,-0.33597588100890846,1756821130.353394
-1.4835500119999998,1.6582260617999998,9.198010074399999,0.079412480965742,-0.4532619892896349,-0.359188760060433,1756821130.361460
-0.9164510557999999,1.9214365477999997,8.6955173284,0.05375614096142535,-0.973719207140929,-0.2907718533822553,1756821130.369432
-0.11006983959999998,2.0434705004,8.1858461146,0.06230825429619756,-1.372003342446035,-0.26145032194875056,1756821130.377402
0.7752745223999999,1.9812571127999998,7.609175868,0.13194689145077132,-1.7067574929785474,-0.1637118838370681,1756821130.385412
1.7539389658,1.902293967,7.343572559399999,0.24068090385001803,-1.9413297793531703,-0.07208209810736581,1756821130.393439
2.7732813933999996,1.7706887239999998,7.3890361888,0.32009338481576005,-2.102598167330861,0.0012217304763960308,1756821130.401415
3.6873396266,1.447657673,7.0085773954,0.4288273972150068,-2.157576073675268,0.04642575810304917,1756821130.409445
4.5511485852,0.7657032319999999,5.922235935,0.5632177496185702,-2.0720549054209605,0.012217304763960306,1756821130.417448
5.38385085,-0.11006983959999998,4.677968183,0.7525859560066623,-1.9034560473184305,0.013439035240356337,1756821130.425443
6.257231098999999,-1.100698396,3.3284162366,1.017701504291186,-1.7959438352087502,-0.008552113334772215,1756821130.433447
7.1641108644,-1.8759729183999998,3.2087751065999996,1.1960741189384216,-1.6823228485440418,0.014660765716752368,1756821130.441444
8.2456666796,-1.7395820301999998,4.8311088294,1.2437216598777443,-1.5564846269285433,0.012217304763960306,1756821130.449451
9.5736832226,-0.7968099258,7.721638530199999,1.0677924363701308,-1.3646729770409514,0.06963863715457375,1756821130.457442
10.540383553,0.8183453291999999,11.3730858178,0.6389650566084165,-0.9957103208094725,0.1832595714594046,1756821130.465437
10.9423777498,2.0434705004,14.0434758394,0.07208209810736581,-0.39217546546983334,0.24556782575560218,1756821130.473420
10.693524199399999,2.2923240507999996,14.483755197799999,-0.4618141026244071,0.4019493441875866,0.3103195584578843,1756821130.481408
9.882357337999998,1.6917255781999998,13.229916155399998,-0.7428121471020792,1.2522737383059315,0.3946189613292104,1756821130.489410
8.724231199599998,0.8566304908,11.7224379174,-0.8894197693630179,1.9987510070240286,0.42149701435663056,1756821130.497449
7.2454668328,0.1363908882,10.719845248,-0.8759807341226615,2.549751434425346,0.5021312257987686,1756821130.505723
5.869593837799999,-0.41156548719999997,10.4183496004,-0.757472930272124,2.8942795334887816,0.5510004448546099,1756821130.513414
4.5966122145999995,-0.7680960546,10.5667046016,-0.6157521426503069,3.023782929080176,0.5473352708787143,1756821130.521406
3.3355947043999996,-1.100698396,10.839486378,-0.4288273972150068,3.0396654950864943,0.558330827712986,1756821130.529425
2.2396819536,-1.2394821068,11.093125573599998,-0.2834414705238791,2.9358184569527093,0.5839871502640102,1756821130.537409
1.2203395259999998,-1.1485548479999999,11.272587268599999,-0.09529497715889039,2.8087582430614266,0.6035348902462242,1756821130.545406
0.28474588939999995,-0.8470592003999999,11.435299205399998,0.019547687622336492,2.6804767001194767,0.6108652381980153,1756821130.553415
-0.4378865357999999,-0.48335016519999996,11.397014043799999,0.1514945790731078,2.497217128660072,0.659734439800564,1756821130.561406
-1.1485548479999999,-0.0861416136,11.3371934788,0.23823744289722598,2.3567180715146505,0.6499606483492734,1756821130.569411
-1.7850456595999997,0.3326023414,11.289337026799998,0.22113321622768156,2.1978931270364592,0.6646214140660257,1756821130.577435
-2.2683958248,0.7537391189999999,11.131410735200001,0.16859880574265224,1.9975292765476325,0.6426302305843121,1756821130.585429
-2.6464617955999996,1.2107682356,10.808379684199998,0.09529497715889039,1.7898352002800626,0.6462954045602076,1756821130.593405
-2.9527430883999997,1.5792629159999998,10.542776375599999,-0.003665191429188092,1.5894713497912358,0.6658431445424218,1756821130.601414
-3.1704899449999995,2.0195422744,10.449456294199999,-0.14172073526193954,1.3915510649749565,0.6658431445424218,1756821130.609455
-3.2829526072,2.2803599377999997,10.164710404800001,-0.24068090385001803,1.132544134165828,0.635299882632521,1756821130.617453
-3.314059301,2.1343977592,9.116654106,-0.2993239667170275,0.8295549760196123,0.6719517620178169,1756821130.625486
-3.3834511563999996,1.8089738855999997,7.537391189999999,-0.2736676267127109,0.4899139210348083,0.6010913769335546,1756821130.633457
-3.5341989802,1.3591232368,6.357729648199999,-0.1954768762233649,0.08674286382411818,0.5510004448546099,1756821130.641424
-3.5581272061999996,0.47377887479999997,5.7355957722,-0.17226399717184032,-0.29321529688175485,0.3066543495754037,1756821130.649440
-3.1441688964,-1.1294122672,5.7571311756,-0.06597344572538566,-0.6426302305843121,0.0635299847725936,1756821130.657422
-2.5698914724,-3.4624143021999996,6.640082715,0.12217304763960307,-0.9016370915802706,-0.23212879051524585,1756821130.665425
-1.5529418674,-5.895914886399999,8.4538422458,0.36529741244241315,-1.0714576103460265,-0.5644394800949663,1756821130.673423
-0.7513462964,-7.544569657799999,10.1527462918,0.5766568023122189,-1.209513223991948,-0.8442157417363647,1756821130.681445
-0.07178467799999999,-7.9704920806,11.196016945399998,0.7024950239277177,-1.3610078030650556,-1.0861183935160712,1756821130.689425
0.39960137419999997,-7.295716107399999,11.751151788599998,0.7293731118617228,-1.4538593192711542,-1.2913690786440193,1756821130.697460
0.658026215,-6.453442552199999,12.083754129999999,0.5632177496185702,-1.4501940056689184,-1.5186110170668512,1756821130.705484
1.4907284798,-5.0512485086,11.8372934022,0.3995058483282095,-1.3658947075173473,-1.6884314834727294,1756821130.713456
2.4622144554000003,-3.7998022887999996,11.9018996124,0.14294246573833558,-1.2376130424023493,-1.7629571123460572,1756821130.721521
3.8811582572,-3.0939196217999996,12.519247843199999,-0.039095375244672985,-1.248608564330036,-1.6627751260151202,1756821130.729413
4.9866422984,-2.6249263922,12.555140182199999,-0.17348572764823636,-1.3842205948501176,-1.5198327475432472,1756821130.737422
5.5489556094,-2.0003996936,11.557333157999999,-0.22357667718047364,-1.5821410018394448,-1.3377949065602386,1756821130.745476
5.455635528,-0.7657032319999999,10.0689975008,-0.13072516097437528,-1.6884314834727294,-1.1960741189384216,1756821130.753437
5.2785666556,1.6486547713999997,9.188438783999999,-0.05619960191421741,-1.6639968390382236,-1.1594222220998331,1756821130.761423
4.869393991,4.0845481781999995,8.5495551498,-0.025656340004316644,-1.4856243116574508,-1.1252137862140368,1756821130.769471
4.264009873199999,5.898307709,7.793423208199999,-0.1111774733520388,-1.2070697804924484,-1.2034044668902126,1756821130.777424
3.5006994637999997,7.6115686905999995,6.7501525546,-0.14172073526193954,-0.8222246280678212,-1.1667525700516244,1756821130.785447
3.2303105100000002,9.308079914,6.2644095667999995,-0.16615534478986016,-0.3885102914939378,-0.935845527466067,1756821130.793423
2.213360905,8.1858461146,7.152146751399999,-0.4227187273797341,-0.20036379812894903,-0.9199630312729187,1756821130.801439
2.261217357,6.1543397272,7.3387869142,-0.7635815477475192,-0.2528982086139784,-0.9492845627064234,1756821130.809438
2.7421746995999996,3.9074793057999995,7.587640464599999,-0.9395107712551326,-0.4935791299172889,-1.1239920731909332,1756821130.817434
3.5294133349999997,2.0386848551999996,8.1499537756,-0.9957103208094725,-0.7696901652229142,-1.1533136046244379,1756821130.825483
4.1659041466,0.6771687958,8.3772719226,-0.9028588220566666,-0.9981537817622645,-1.1863003100338383,1756821130.833419
4.6109691502,-0.3900300838,8.4753776492,-0.659734439800564,-1.1997392929143171,-1.070235897322923,1756821130.841439
4.9507499593999995,-1.3782658176,8.85344362,-0.35796702958403703,-1.312138531649337,-0.9272934490378798,1756821130.849469
5.3168518172,-2.3258235671999996,9.157332090199999,-0.06597344572538566,-1.312138531649337,-0.718377520120866,1756821130.857412
5.568098190199999,-3.409772205,9.169296203199998,0.1747074581246324,-1.3048081836975458,-0.6072000642221197,1756821130.865482
5.680560852399999,-4.390829471,9.0257268472,0.378736465136062,-1.1594222220998331,-0.4850270165825167,1756821130.873440
5.730810127,-5.3551369788,8.568697730599999,0.5534438883541094,-0.9407325017315287,-0.5461135404023182,1756821130.881406
5.9844493226,-6.1088760978,7.5349983674,0.7586946432952276,-0.6255260039147678,-0.5852088807404061,1756821130.889418
6.226124405199999,-6.800401829199999,6.2189459374,1.0274753131957692,-0.32131511529215606,-0.5742133588127195,1756821130.897416
6.6616181184,-7.0037917502,5.7332029496,1.296255983096311,-0.04276056667386108,-0.594982742004867,1756821130.905446
7.1808606226,-6.838686990799999,6.0753765814,1.5173892865904552,0.2345722514680379,-0.4801400772236401,1756821130.913487
7.872386354,-6.582654972599999,6.6017975534,1.6151277072488452,0.4447098934081552,-0.37384952577718544,1756821130.921453
8.5950187792,-6.0083775485999995,8.2456666796,1.5919147932907354,0.5668829410477582,-0.07696902001294993,1756821130.929421
9.166903380599999,-4.582255279,11.114660977,1.3377949065602386,0.6951646759759265,0.19669860669976094,1756821130.937461
9.229116768199999,-2.1391834043999998,14.768501087199999,0.9602801544472802,0.9688322328754674,0.4960225734167885,1756821130.945444
8.5232341012,0.41156548719999997,18.125631195,0.38973202197033374,1.474628650103424,0.8051204013982768,1756821130.953446
7.2406811876,2.1798613886,19.5278252386,-0.21135937241651329,2.096489549855466,0.9578367109477806,1756821130.961421
5.388636495199999,3.0053851856,18.652052166999997,-0.6059783337457239,2.6645941341131576,1.1239920731909332,1756821130.969442
3.1561330094,3.649054465,16.730615619199998,-0.8283332455432163,3.1655035770756528,1.1801916925584433,1756821130.977501
0.8685946038,3.9529429352,14.940784314399998,-0.7977899836333155,3.591887652964208,1.2522737383059315,1756821130.985419
-1.100698396,4.3238304382,13.557732851599999,-0.755029399506162,3.91442442891959,1.1826351360579428,1756821130.993447
-2.9168507493999996,4.682753828199999,12.227323486,-0.7220426940967616,3.9351938819249073,1.0458012528884173,1756821131.001456
-4.2185462438,4.7401815706,10.703095489799999,-0.679282109969608,3.6822955860444666,0.8063421318746727,1756821131.009433
-5.2402814939999995,5.0919264928,8.7266240222,-0.6328563518665589,3.167947038028445,0.594982742004867,1756821131.017470
-5.857629724799999,5.5322058512,6.934399894799999,-0.5119050696099369,2.4446828054415053,0.5021312257987686,1756821131.025436
-5.7834522242,5.642275690799999,5.5537412546,-0.39584067435231396,1.4966198335851375,0.31398473243377983,1756821131.033421
-5.233103026199999,5.2211389132,4.6468614892,-0.3457497073667842,0.43249260609748735,0.14172073526193954,1756821131.041438
-4.2496529376,4.496113665399999,3.9625142255999997,-0.29321529688175485,-0.5082398956340413,-0.05253441048502932,1756821131.049419
-3.0173492986,3.6969109169999994,3.8237305147999994,-0.22602013813326566,-1.2925908091204152,-0.28099800957108706,1756821131.057429
-1.8472590472,2.9264220398,4.1970108404,-0.1514945790731078,-1.8912387949143479,-0.44104470197896706,1756821131.065461
-0.6987041992,2.667997199,4.7306102802,-0.0757472895365539,-2.287079329640322,-0.5290092788261888,1756821131.073443
0.1722832272,2.6464617955999996,5.230710203599999,-0.07819075048934597,-2.4898867807082805,-0.6206390994624761,1756821131.081427
0.7704888771999999,2.4670001006,5.2594240748,-0.06963863715457375,-2.530203834069472,-0.6267477343911637,1756821131.089460
1.2107682356,1.8329021115999997,4.9866422984,-0.08918632477691024,-2.3835962816217036,-0.5998696464571586,1756821131.097446
1.6438691261999998,0.7800601676,4.560719875599999,-0.003665191429188092,-2.04151164351106,-0.5363396791378575,1756821131.105439
2.1056838879999997,-0.5790630692,4.307080679999999,0.11606439525762292,-1.5430456615013568,-0.5644394800949663,1756821131.113444
2.5052852621999997,-2.2540388892,4.3453658416,0.30298917559950816,-0.9443976757074242,-0.5534438883541094,1756821131.121423
2.9120651042,-3.9577285803999995,5.0679982668,0.577878532788615,-0.3872885784708342,-0.5839871502640102,1756821131.129422
3.3571301078,-5.7355957722,7.1042902994,0.8222246280678212,0.08185594191853406,-0.614530412173911,1756821131.137451
3.6155549486,-6.8506511038,10.7748801678,0.972497476664533,0.49480084294039245,-0.6230825604152682,1756821131.145449
3.5676984966,-7.757530869199999,15.0101761698,0.9285151795142759,0.858876507453117,-0.6951646759759265,1756821131.153440
3.4815568829999997,-8.566304908,16.5750821502,0.8466591852358643,1.1117747509736804,-0.6475171175833112,1756821131.161412
3.0508488149999997,-9.4564349152,15.677773675200001,0.7318165553612224,1.1985175624379212,-0.575435071835823,1756821131.169450
1.7563317884,-9.391828705,14.316257615799998,0.6621779007533561,1.2412782163782448,-0.37629296927668493,1756821131.177446
-0.3780659708,-8.841479507,14.1463672112,0.5632177496185702,1.2974776961194145,-0.39217546546983334,1756821131.185439
-0.9284151688,-5.2785666556,14.3066863254,0.5497787143782138,1.056796844629274,-0.6206390994624761,1756821131.193449
-1.8568303376,-1.4069796888,16.0462683556,0.48136180770003606,0.6157521426503069,-0.575435071835823,1756821131.201416
-2.2683958248,1.7300107398,17.3312140918,0.27611108766550296,-0.16493361431346412,-0.5619960365954666,1756821131.209442
-1.7084753364,3.5772697869999996,18.1567378888,0.01710422666954443,-1.19118721448613,-0.594982742004867,1756821131.217452
-0.873380249,4.378865358,18.039489581399998,-0.1111774733520388,-2.087937331800939,-0.5326744877086693,1756821131.225476
0.3158525832,4.5655055208,16.8670065074,-0.16493361431346412,-2.7171284573317247,-0.5033529562751646,1756821131.233427
1.399801221,4.3932222936,15.605988997199997,-0.2504547476611863,-3.123964915411113,-0.3995058483282095,1756821131.241421
2.5220350204,3.6969109169999994,14.344971486999999,-0.4019493441875866,-3.293785381816991,-0.4471533718142397,1756821131.249632
3.5868410774,2.7349962317999994,12.916456394799999,-0.5668829410477582,-3.265685580859883,-0.4715879638888678,1756821131.257427
4.4434715682,2.0626130812,11.076375815399999,-0.6255260039147678,-3.119078028412114,-0.5363396791378575,1756821131.265435
5.0464628634,1.4907284798,9.284151688,-0.6560692658246685,-2.8906142198865457,-0.5461135404023182,1756821131.273433
5.546562786799999,1.0839486378,7.597211755,-0.6524040918487729,-2.6108379582451477,-0.6621779007533561,1756821131.281406
5.647061336,0.873380249,5.9365928706,-0.6426302305843121,-2.344500819110568,-0.7024950239277177,1756821131.289425
5.386243672599999,1.0025926693999998,4.103690759,-0.6487388480597073,-2.0732766358973564,-0.7342600163140145,1756821131.297406
4.8502514102,1.411765334,2.0291135648,-0.6206390994624761,-1.8020524526841453,-0.7806857744170635,1756821131.305402
4.1730826144,1.9334006607999998,0.5192425042,-0.5974262029576589,-1.4966198335851375,-0.7867944617056288,1756821131.313423
3.4815568829999997,2.225325018,-0.16271193679999998,-0.5497787143782138,-1.076344514798318,-0.7562511997957281,1756821131.321454
2.7804598611999998,2.0530417908,-0.3924229064,-0.5033529562751646,-0.6072000642221197,-0.7611381042480195,1756821131.329407
2.5794627627999995,0.6293123438,-0.20578274359999998,-0.49113563405791183,-0.2064724505109292,-0.877202447145765,1756821131.337406
2.895315346,-1.6199409001999998,0.11964113,-0.4935791299172889,-0.0024434609527920616,-1.0409143484361256,1756821131.345422
3.2757741393999997,-3.0532416376,0.49770710079999997,-0.3103195584578843,0.09529497715889039,-1.2131783979678434,1756821131.353422
3.7782668854,-3.9744783385999995,1.2777672683999999,-0.026878070480712675,0.079412480965742,-1.3622295335414518,1756821131.361389
4.4051864065999995,-4.558327053,2.9216363946,0.31642817593327943,-0.048869219055841226,-1.3439035240356338,1756821131.369446
5.615954642199999,-5.2785666556,6.1304115012,0.678060379493212,-0.19303341527057286,-1.3561207764397165,1756821131.377422
7.0755764282,-5.967699564399999,9.7842516114,1.0091493735031214,-0.33231070703301285,-1.2327259983237175,1756821131.385406
8.3796647452,-6.5563339240000005,12.299108163999998,1.1410962125940152,-0.5326744877086693,-0.9810495550927202,1756821131.393421
9.583254513,-7.0253271536,12.7011023608,1.2461651208305364,-0.8258898020437168,-0.6695083185183173,1756821131.401421
10.581061537199998,-6.848258281199999,12.531211956199998,1.3158037056252325,-1.2241739198955304,-0.33108894165003183,1756821131.409747
11.715259449599998,-5.991627790399999,12.806386555199998,1.2437216598777443,-1.5552629139054395,-0.09040805525330627,1756821131.417411
12.8279219586,-4.4386859229999995,13.718051965799999,1.0543534011297744,-1.5809192713630487,0.12583823906879116,1756821131.425415
14.395220761600001,-3.1130622025999997,14.6368958442,0.718377520120866,-1.314581992602129,0.33597588100890846,1756821131.433448
14.9383914918,-1.8185451759999998,14.629717376399999,0.4117231705454623,-0.6475171175833112,0.5265658353266892,1756821131.441446
14.179866727599999,-0.5766702466,13.916656241599998,0.22602013813326566,0.49235736453430784,0.6731734924942129,1756821131.449451
12.1842526792,0.7992027483999999,13.227523332799999,0.07208209810736581,1.8154914355646241,0.6267477343911637,1756821131.457436
10.186245808199999,2.2636101795999997,13.576875432399998,-0.12217304763960307,3.0433305294360498,0.6585127267774605,1756821131.465421
8.530412569,3.3834511563999996,14.840285765199999,-0.3005456797401311,4.02438022415511,0.6682865880419212,1756821131.473438
6.262016744199999,4.594219391999999,16.141981259599998,-0.5436700619962336,4.632802001400333,0.7660249912470187,1756821131.481408
3.972085516,6.197410533999999,16.5320113434,-0.7098253718795088,5.001764343472547,0.972497476664533,1756821131.489436
1.4859428345999999,7.4273213504,15.7710937566,-0.8307766890427158,5.155702505671494,1.150870143671646,1756821131.497409
-1.5720844482,7.9226356286,13.5840539002,-0.9089675093452318,5.060407668138944,1.229060824347822,1756821131.505473
-3.8500515633999997,7.585247641999999,10.9016997656,-0.9822712855691161,4.687779768118399,1.0824532020868833,1756821131.513423
-5.266602542599999,6.608976021199999,8.5088771656,-1.0555751316061706,3.9608502393825162,0.8808676909348307,1756821131.521417
-5.802594805,5.486742221799999,6.4917277138,-0.9786061115932205,2.9126055429946,0.678060379493212,1756821131.529431
-5.7451670626,4.510470601,5.1828537516,-0.7452556080548712,1.7531831812684264,0.577878532788615,1756821131.537409
-5.0512485086,3.4504501891999997,4.2257247116,-0.4520402762665313,0.4801400772236401,0.5412266010434417,1756821131.545406
-3.876372612,2.4000010678,3.5126635768,-0.11850785621041497,-0.6475171175833112,0.34697143784318024,1756821131.553421
-2.5507488916,1.3495519463999999,2.5651058272,0.12583823906879116,-1.5418237913986206,0.1747074581246324,1756821131.561399
-1.3782658176,0.5407779076,1.9190437251999999,0.39828413530510604,-2.2430972244762826,-0.028099800957108706,1756821131.569454
-0.2177468566,0.09571290399999999,1.8352949342,0.5155702784924174,-2.6511550290596313,-0.2431243648028101,1756821131.577397
0.8901300072,0.07178467799999999,2.1798613886,0.5864305937635097,-2.849075558222006,-0.49968774739268407,1756821131.585402
1.7659030788,0.20578274359999998,2.4741785684,0.5632177496185702,-2.878396967482463,-0.7024950239277177,1756821131.593399
2.7326034091999998,0.1962114532,2.6105694566,0.5045746867515607,-2.682920143618976,-0.8906414998394138,1756821131.601420
3.5772697869999996,-0.011964112999999998,2.4813570361999995,0.49724430389318447,-2.3457224099606235,-1.0213666782670816,1756821131.609639
4.4123648744,-0.4642075844,2.3282163898,0.4935791299172889,-1.7886134698036664,-1.0140362605021205,1756821131.617503
5.194817864599999,-1.1341979124,2.5268206656,0.5864305937635097,-1.1239920731909332,-0.917519587773419,1756821131.625412
6.077769404,-1.986042758,3.8835510797999997,0.6695083185183173,-0.3127630019573839,-0.7159340591680741,1756821131.633469
6.740581264199999,-2.5722842949999998,6.5300128754,0.6181955861498065,0.6316346388434554,-0.6658431445424218,1756821131.641417
7.4392854634,-3.5150563993999997,9.8632147572,0.3946189613292104,1.651779586634141,-0.6829473537586737,1756821131.649418
7.764709337,-4.943571491599999,12.8207434908,0.18081611050661253,2.6878070480712677,-0.5852088807404061,1756821131.657435
7.1593252192,-6.6783678766,15.436098592599999,0.1881464933649887,3.701843448199728,-0.45814892864851153,1756821131.665434
5.682953674999999,-8.362914987,17.407784415,0.37995817815916555,4.5399503630211875,-0.16859880574265224,1756821131.673420
3.0532416376,-8.8510507974,18.245272325,0.659734439800564,5.106833496055163,0.15027284859671178,1756821131.681450
-1.2179467034,-7.3627151402,18.5228397466,0.8405505677604691,5.461135124770502,0.2528982086139784,1756821131.689470
-4.3046878574,-3.3690942208,17.6063886908,0.8381071068076771,5.3866097576965615,0.43127084071450633,1756821131.697421
-7.0851477186,0.8805587167999999,16.6803663446,0.659734439800564,4.7403143531363545,0.4276056667386107,1756821131.705420
-9.2339024134,4.9962135888,16.1491597274,0.14905111812031574,3.2449161104012725,0.35674531656093345,1756821131.713474
-10.2149596794,6.2644095667999995,16.701901747999997,-0.49113563405791183,1.1362093081417235,0.2822197400474831,1756821131.721430
-10.061819032999999,5.0895336702,17.539389658,-0.8368853937845735,-0.8906414998394138,0.26878070480712674,1756821131.729422
-8.681160392799999,2.8737799426,18.0347039362,-0.6817256232822776,-2.5925119487393298,0.23823744289722598,1756821131.737475
-6.788437716199999,2.2971096959999997,16.9866476374,-0.5009095127756651,-3.9009853238660632,0.12583823906879116,1756821131.745420
-4.5296131818,2.9216363946,14.452648503999999,-0.5021312257987686,-4.73909250048691,-0.05131268000863329,1756821131.753426
-2.1128623558,2.9168507493999996,12.0047909842,-0.6096435077216193,-5.214345847791185,-0.2040289895581371,1756821131.761431
0.22492532440000002,2.0554346134,10.4015998422,-0.7086036414031127,-5.411044262504727,-0.33719761148530447,1756821131.769433
2.3473589705999998,0.9499505721999999,9.260223461999999,-0.7599163737716236,-5.426926811057753,-0.44104470197896706,1756821131.777421
4.0510486618,0.2967100024,7.9657064354,-0.7684684521998107,-5.288871214865124,-0.5131268000863328,1756821131.785465
5.170889638599999,-0.2823530668,6.4319071488,-0.7342600163140145,-5.018868762128309,-0.6072000642221197,1756821131.793419
5.8911292412,-0.7417750059999999,4.582255279,-0.6548475353482724,-4.630358296101446,-0.6328563518665589,1756821131.801424
6.1304115012,-0.9068797653999999,2.4933211492,-0.5277875658030853,-4.127005671438839,-0.6963864064523225,1756821131.809481
5.9389856932,-0.658026215,0.7106683122,-0.3494149162492648,-3.475823100626952,-0.7440338775784752,1756821131.817454
6.0251273068,-0.4283152454,-0.7585247641999999,-0.24678955623199822,-2.8112019483603143,-0.7855726614160627,1756821131.825425
5.967699564399999,-0.1962114532,-1.7754743691999997,-0.11239920382843482,-2.0622811139696697,-0.8576547769767211,1756821131.833426
5.675775207199999,0.11246266220000001,-2.3712871966,0.0158824961931484,-1.2877039046681238,-0.8491027160018264,1756821131.841490
5.228317380999999,0.39481572899999995,-2.4717857457999997,0.16126842288427606,-0.5546656537370904,-0.8185594540919257,1756821131.849420
5.0560341538,-0.45463629399999994,-1.9070796122,0.16859880574265224,0.013439035240356337,-0.9199630312729187,1756821131.857415
5.1230331866,-1.686939933,-1.1700902514,0.06963863715457375,0.4043927876870862,-0.9468411192069238,1756821131.865464
5.2953164138,-2.4957139718,-0.24885355039999998,-0.07208209810736581,0.6939428756863605,-0.9822712855691161,1756821131.873420
5.730810127,-2.9742784918,1.3950155757999998,-0.10506882097005864,0.9382889709655666,-0.9896017033340774,1756821131.881422
6.642475537599999,-3.6394831746,4.1898323726,-0.079412480965742,1.0274753131957692,-1.0079276430267252,1756821131.889482
7.7383882883999995,-4.914857620399999,7.6881390138,0.048869219055841226,1.0262535827193733,-0.9688322328754674,1756821131.897475
8.5639120854,-6.4295143262,10.920842346399999,0.2675589743307307,0.9663887893759677,-0.7342600163140145,1756821131.905421
9.3966143502,-7.542176835199999,12.8685999428,0.679282109969608,0.7709118956993103,-0.30298917559950816,1756821131.913431
9.786644434,-7.8053873212,14.835500119999999,1.038470904936626,0.359188760060433,0.12950343049797924,1756821131.921425
9.9158568544,-6.412764567999999,16.5009046496,1.1203268817617453,-0.11728612573401895,0.37629296927668493,1756821131.929452
9.7794659662,-4.687539473399999,17.532211190199998,0.972497476664533,-0.40683623118658574,0.5094616261104373,1756821131.937460
9.6981099978,-3.2159535744,17.3790705438,0.6829473537586737,-0.3909537524467298,0.5839871502640102,1756821131.945424
9.499505721999999,-2.0434705004,16.414763036,0.4642575810304917,-0.05253441048502932,0.5485569839018177,1756821131.953442
9.3702933016,-1.2107682356,15.3690995598,0.339641054984804,0.48624874705891274,0.4740314248416599,1756821131.961479
8.800801522799999,0.1722832272,14.7948221358,0.24801128670839426,1.154535335100834,0.4728096943652639,1756821131.969443
8.2097743406,1.6390834810000001,14.739787215999998,0.07696902001294993,1.7629571123460572,0.4630358680073881,1756821131.977456
7.2047888486,3.1130622025999997,15.230315849,-0.10018189906447451,2.2614232339821005,0.5742133588127195,1756821131.985419
6.003591903399999,4.4913280202,15.792629159999999,-0.34086282036778504,2.6181683236502313,0.7232644245731576,1756821131.993449
4.606183505,5.776273756399999,16.017554484399998,-0.55710909723659,2.8674013059284365,0.8894197693630179,1756821132.001454
2.9623143788,6.7453669093999995,15.3332072208,-0.7525859560066623,2.971248605861609,1.095892254780532,1756821132.009469
1.016949605,7.223931429399999,13.816157692400001,-0.9101892398216279,2.9578095008080827,1.1582005090767296,1756821132.017461
-0.5814558917999999,7.118647234999999,11.846864692599999,-0.9932668773099729,2.841745210270215,1.1239920731909332,1756821132.025448
-1.6366906583999998,6.7118673929999995,10.0594262104,-0.9566149804713845,2.5717427575334,1.0372491744602301,1756821132.033418
-2.4670001006,6.0346985972,8.717052731799999,-0.8906414998394138,2.164906421627059,0.8906414998394138,1756821132.041453
-2.656033086,4.721038989799999,7.685746191199999,-0.8295549760196123,1.5076153555128244,0.7782423134642716,1756821132.049422
-2.6297120374,3.7902309983999998,6.5228344075999996,-0.6829473537586737,0.8356636633081775,0.6499606483492734,1756821132.057418
-2.1104695332,2.9240292171999998,5.359922624,-0.4129449010218584,0.18203784098300857,0.5717698280467574,1756821132.065434
-1.4763715441999998,1.9597217094000001,4.1300118076,-0.16493361431346412,-0.4153883445213579,0.4630358680073881,1756821132.073422
-0.6867400862,0.8781658942,2.9742784918,0.006108652381980153,-0.8918632128625174,0.19669860669976094,1756821132.081447
0.0981057266,0.09571290399999999,2.0889341298,0.09040805525330627,-1.295034252619915,0.014660765716752368,1756821132.089443
0.7537391189999999,-0.31106693799999996,1.7084753364,0.12461650859239512,-1.569923609809022,-0.20036379812894903,1756821132.097438
1.3950155757999998,-0.562313311,1.8664016279999998,0.13439035240356337,-1.6652187091409598,-0.38362336958835364,1756821132.105421
2.1152551784,-0.6795616184,2.0913269523999998,0.10873401239924674,-1.595579967266631,-0.5717698280467574,1756821132.113465
2.6847469572,-0.8685946038,2.1583259852,0.08674286382411818,-1.3475686980115293,-0.698829849951822,1756821132.121466
3.2805597846,-1.1509476706,1.9932212257999997,0.1795943800302165,-1.032362287461231,-0.7770205829878756,1756821132.129409
3.8811582572,-1.363908882,1.9046867896,0.3420845333908886,-0.614530412173911,-0.8454374722127607,1756821132.137459
4.3573299546,-1.5146567058,2.380858487,0.5302310093025848,-0.15760323145508795,-0.718377520120866,1756821132.145447
4.778466732199999,-1.7300107398,3.7854453532,0.6035348902462242,0.34697143784318024,-0.5815437067645106,1756821132.153442
5.235495848799999,-1.8783657409999999,6.077769404,0.518013721991917,0.9810495550927202,-0.44104470197896706,1756821132.161406
5.455635528,-2.093719775,8.8271225714,0.28099800957108706,1.6945401009481245,-0.3506366467256608,1756821132.169461
5.582455125799999,-3.0604201054,10.9088782334,-0.02199114857512855,2.443460952792061,-0.2919935838586513,1756821132.177423
5.2211389132,-4.627718908399999,12.0765756622,-0.1747074581246324,3.1850514392309144,-0.1392772743091475,1756821132.185446
4.1778682596,-6.7142602156,13.117453493199998,-0.029321531433504737,3.8044686336840696,-0.059864793343405505,1756821132.193469
2.1511475173999997,-8.1882389372,13.8999064834,0.21380283336930536,4.366464600466366,0.14416419621473162,1756821132.201429
-0.7609175867999999,-8.4777704718,14.589039392199998,0.5485569839018177,4.801400876956156,0.2565634000431664,1756821132.209444
-2.9671000239999996,-6.4917277138,15.7256301272,0.9272934490378798,5.000543014421879,0.39584067435231396,1756821132.217420
-5.192425041999999,-2.6991038927999997,17.3216428014,1.075122784321922,4.857600496323665,0.5852088807404061,1756821132.225445
-7.030112798799999,1.5337992865999999,18.4295196652,0.9199630312729187,4.313930277247799,0.7403686337894095,1756821132.233421
-8.7074814414,5.0297131052,17.8719919994,0.4544837546726159,3.211929404991872,0.698829849951822,1756821132.241457
-9.9924271776,6.6664037636,16.273586502599997,-0.16493361431346412,1.4770720936029236,0.45692719817211547,1756821132.249931
-10.1671032274,5.9150574672,16.03191142,-0.6841690842350697,-0.3347541505325124,0.32009338481576005,1756821132.257414
-9.2434737038,3.9050864832,17.3455710274,-0.8576547769767211,-1.9511035882577537,0.19669860669976094,1756821132.265398
-7.597211755,2.3952154225999998,18.0227398232,-0.698829849951822,-3.1813861430819714,0.05375614096142535,1756821132.273432
-5.7092747236,2.4071795355999996,16.486547714,-0.6255260039147678,-3.974289361889335,-0.1356120828799594,1756821132.281409
-3.6658042231999994,2.8043880872,13.9070849512,-0.7024950239277177,-4.5032983440095515,-0.32986722862692824,1756821132.289427
-1.8329021115999997,2.4741785684,11.272587268599999,-0.8112290363269643,-4.8172834429624745,-0.4874704600820162,1756821132.297407
0.107677017,1.447657673,9.205188542199998,-0.8613199509526166,-5.000543014421879,-0.6169738556734105,1756821132.305455
1.9453647737999997,0.45224347139999993,8.1762748242,-0.8735372731698694,-5.042081937885807,-0.6756169359937125,1756821132.313459
3.2566315585999996,-0.13160524299999998,7.405785946999999,-0.8063421318746727,-4.95167346375348,-0.7305948423381188,1756821132.321433
4.4410787456,-0.3158525832,6.125625855999999,-0.698829849951822,-4.741536205785797,-0.8185594540919257,1756821132.329443
4.9483571368,-0.48574298779999997,4.467399794199999,-0.5742133588127195,-4.439768638489638,-0.8185594540919257,1756821132.337404
5.216353267999999,-0.5718846014,2.7780670385999997,-0.4886921905584123,-4.008497658148792,-0.8747590036462655,1756821132.345407
5.3431728658,-0.5766702466,1.0360921857999998,-0.378736465136062,-3.519805467590379,-0.8894197693630179,1756821132.353427
5.410171898599999,-0.5910271822,-0.39960137419999997,-0.3457497073667842,-2.9895743535680395,-0.9688322328754674,1756821132.361393
5.4939206896,-0.6293123438,-1.4213366244,-0.23335052099164186,-2.443460952792061,-0.9896017033340774,1756821132.369435
5.5130632704,-0.47856452,-1.9573288867999998,-0.1392772743091475,-1.8216001926663592,-0.9981537817622645,1756821132.377407
5.3383872206,-0.11724830739999999,-2.0793628394,0.03665191429188092,-1.1643091265521246,-0.9688322328754674,1756821132.385405
5.0440700408,0.1292124204,-1.7204394494,0.2272418686096617,-0.5619960365954666,-0.8723155601467658,1756821132.393431
5.0512485086,-0.8518448456,-0.7776673449999999,0.2504547476611863,-0.08429940287132612,-0.9199630312729187,1756821132.401441
5.328815930199999,-1.8927226766,0.2105683888,0.16493361431346412,0.20158552860534507,-1.0152579909785164,1756821132.409423
5.694917788,-2.5268206656,1.1653046061999999,0.026878070480712675,0.39828413530510604,-1.095892254780532,1756821132.417469
6.3338014222,-2.7589244578,2.4933211492,-0.07819075048934597,0.5363396791378575,-1.0873401065391748,1756821132.425456
7.2071816712,-3.2638100264,4.8502514102,-0.08185594191853406,0.6377433261320204,-1.0213666782670816,1756821132.433426
8.4155570842,-4.041477371399999,7.829315547199999,-0.09529497715889039,0.635299882632521,-0.8185594540919257,1756821132.441446
9.7435736272,-4.893322217,11.2271236392,0.0757472895365539,0.5717698280467574,-0.5876523242399058,1756821132.449447
10.8227366198,-5.4532427054,15.0053905246,0.2797762965479835,0.48136180770003606,-0.2590068609959585,1756821132.457427
11.198409768,-5.300102059,18.1232383724,0.4544837546726159,0.4153883445213579,0.03665191429188092,1756821132.465428
10.894521297799999,-4.582255279,18.8506564428,0.43127084071450633,0.4019493441875866,0.21624629432209744,1756821132.473440
10.0905329042,-3.7280176108,17.5058901416,0.3726277953007894,0.498466016916288,0.3017674451231121,1756821132.481409
9.198010074399999,-2.7972096194,15.708880369,0.3103195584578843,0.7220426940967616,0.278554548618295,1756821132.489425
8.5974116018,-1.6654045296,14.2995078576,0.28955012290585924,1.0409143484361256,0.24190263432641407,1756821132.497407
8.243273857,-0.49770710079999997,13.4404845442,0.21380283336930536,1.4257595008607529,0.22846359908605773,1756821132.505431
7.573283528999999,0.9308079913999999,13.4763768832,0.15271630954950383,1.7922786437795621,0.29321529688175485,1756821132.513545
6.9367927173999995,2.3521446158,14.395220761600001,-0.025656340004316644,2.138028333693054,0.4153883445213579,1756821132.521405
6.269195212,3.7615171272,15.577275126,-0.26633724385433466,2.4740042147019623,0.6243042734383717,1756821132.529444
5.292923591199999,4.893322217,16.694723280199998,-0.5632177496185702,2.7537804763433607,0.8185594540919257,1756821132.537407
3.9266218865999996,5.874379482999999,16.8478639266,-0.8723155601467658,2.9907962236707757,1.0360274614371265,1756821132.545405
2.476571391,6.4582281973999995,15.838092789399997,-1.0616838188947357,3.1984902999383458,1.2412782163782448,1756821132.553403
0.5934200048,6.924828604399999,13.698909385,-1.0848966630396752,3.374419505992667,1.3267992450062118,1756821132.561412
-1.1581261384,6.8410798133999995,11.4185494472,-1.0091493735031214,3.4746015097768965,1.2901473481676236,1756821132.569413
-2.4598216327999998,6.439085616599999,9.2506521716,-0.9431759452310281,3.423288777408385,1.1020008722559271,1756821132.577442
-3.3547372851999997,5.520241738199999,7.4727849798,-0.8759807341226615,3.0921998008517684,0.8576547769767211,1756821132.585415
-3.7112678526,4.814359071199999,6.017948839,-0.8295549760196123,2.5033256239624193,0.6646214140660257,1756821132.593408
-3.9529429352,4.2903309218,4.6731825378,-0.6291911778906633,1.7385224853648442,0.5473352708787143,1756821132.601396
-3.5629128513999997,3.0675985731999997,3.5796626096,-0.4618141026244071,0.8845328649107262,0.34086282036778504,1756821132.609423
-2.787638329,1.5122638832,2.7349962317999994,-0.28955012290585924,-0.0024434609527920616,0.1637118838370681,1756821132.617453
-1.8544375149999999,0.2584248408,1.9812571127999998,-0.11972958668681101,-0.8454374722127607,-0.07086036763096977,1756821132.625475
-0.9379864591999999,-0.5383850849999999,1.7371892076,0.059864793343405505,-1.4245377878376493,-0.23945917337362202,1756821132.633408
-0.040677984199999996,-0.9260223461999999,1.9788642901999998,0.2272418686096617,-1.8325957145940461,-0.4471533718142397,1756821132.641487
0.7992027483999999,-1.0121639597999998,2.4933211492,0.359188760060433,-2.025629094958034,-0.6695083185183173,1756821132.649434
1.6773686425999998,-0.9427721043999999,3.038884702,0.47525315531805595,-2.048841991462851,-0.8649851947416822,1756821132.657419
2.5052852621999997,-1.0336993632,3.2997023654,0.5742133588127195,-1.8900170644379521,-1.0861183935160712,1756821132.665413
3.3451659948,-1.232303639,3.1800612353999997,0.7024950239277177,-1.5760323669107572,-1.150870143671646,1756821132.673473
3.888336725,-1.5888342063999998,2.9862426047999997,0.8466591852358643,-1.0922270808046364,-1.0861183935160712,1756821132.681419
4.6157547954,-2.081755662,3.1680971224,0.9981537817622645,-0.4398229889558636,-0.8784242474353311,1756821132.689426
5.0512485086,-2.5986053435999996,4.4697926167999995,0.972497476664533,0.3518583772020568,-0.6927211626632569,1756821132.697447
5.5944192388,-2.775674216,6.884150620199999,0.718377520120866,1.185078597010735,-0.5522221578777133,1756821132.705483
5.836094321399999,-2.8187450228,9.8201439504,0.1881464933649887,2.1783454045075374,-0.4276056667386107,1756821132.713567
5.520241738199999,-3.5940195451999997,11.8014010632,-0.5143485131094364,3.249803014853564,-0.18203784098300857,1756821132.721474
4.2687955184,-5.0536413312,12.746565990199999,-1.0348057309607304,4.257730657880289,0.12950343049797924,1756821132.729428
1.8185451759999998,-6.3673009386,12.741780344999999,-1.1313224211427242,5.231449725394878,0.4117231705454623,1756821132.737442
-0.7944171031999999,-7.142575461,13.986048097,-0.6035348902462242,6.034127014906213,0.659734439800564,1756821132.745469
-3.6538401101999995,-6.305087550999999,16.577474972799997,-0.0024434609527920616,6.565579457979221,0.7147123461449705,1756821132.753454
-6.4223358584,-3.924229064,19.1090812836,0.4422664324553631,6.592457668086275,0.7525859560066623,1756821132.761408
-9.367900479,-0.9164510557999999,19.838892176599998,0.5827654197876142,6.109874234629596,0.7904596356815243,1756821132.769514
-11.8612216282,3.0915267991999995,18.0682034526,0.2516764781375823,4.775744519498546,0.6585127267774605,1756821132.777448
-14.1726882598,6.1423756142,15.443277060399998,-0.4129449010218584,2.520430042618181,0.2724458962363148,1756821132.785471
-14.928820201399999,6.2309100504,15.206387623,-0.9944886077863689,-0.10140362954087054,0.010995574287564275,1756821132.793413
-14.1152605174,3.0412775246,17.4747834478,-1.0213666782670816,-2.3921482378768433,-0.05619960191421741,1756821132.801457
-12.0765756622,1.1030912186,18.1663091792,-0.6658431445424218,-3.996280405744709,-0.21991148575128552,1756821132.809441
-9.3248296722,1.7970097725999998,15.7639152888,-0.4850270165825167,-5.137376757965065,-0.5167920089688135,1756821132.817435
-6.3912291645999995,1.9477575963999998,12.866207120199999,-0.6023130899566581,-5.900958305712583,-0.735481729337118,1756821132.825541
-3.5964123677999997,1.2203395259999998,10.2125668568,-0.6817256232822776,-6.388428643621552,-1.0005972950749342,1756821132.833419
-1.0049854919999999,0.5335994398,8.492127407399998,-0.7501425125071628,-6.673091792261949,-1.1838568665343387,1756821132.841415
1.0719845248,0.083748791,7.4273213504,-0.6890559886873613,-6.765943448094388,-1.3365731760838424,1756821132.849462
2.8115665549999997,-0.3062812928,6.1423756142,-0.6157521426503069,-6.692639392617823,-1.4282029618135448,1756821132.857419
3.9912280968,-0.3421736318,4.3740797127999995,-0.5265658353266892,-6.473949672249519,-1.3952162389508522,1756821132.865469
4.6253260858,-0.41156548719999997,2.2540388892,-0.417831840380735,-6.137973791240611,-1.3573425069161127,1756821132.873419
5.0129633469999995,-0.2727817764,0.08135596839999999,-0.2504547476611863,-5.662720967535113,-1.314581992602129,1756821132.881424
5.331208752799999,-0.09571290399999999,-1.8161523534,-0.10873401239924674,-5.083620320297666,-1.323134071030316,1756821132.889419
5.362315446599999,0.23688943739999999,-3.1561330094,0.0317649923862968,-4.382347149019393,-1.3952162389508522,1756821132.897443
5.680560852399999,0.334995164,-4.0199419679999995,0.1637118838370681,-3.6151005669223175,-1.3109168186262334,1756821132.905416
5.6973106106,0.3182454058,-4.2544385828,0.24068090385001803,-2.8686231760311727,-1.3695598814932428,1756821132.913471
6.017948839,0.0789631458,-4.031906081,0.23823744289722598,-2.1783454045075374,-1.2986995662221508,1756821132.921460
6.364908115999999,-0.5144568589999999,-3.3810583338,0.20769418098732523,-1.574810636434361,-1.3573425069161127,1756821132.929455
6.7621166676,-1.2801600909999997,-2.3497517932,0.12583823906879116,-0.9798278246163241,-1.3206906100775242,1756821132.937420
7.202396026,-2.1822542112,-1.0025926693999998,-0.04520402762665313,-0.43371431912059094,-1.407433491354935,1756821132.945429
7.984849016199999,-2.8498517165999995,0.8518448456,-0.16982053621904827,0.14172073526193954,-1.3048081836975458,1756821132.953457
9.4540420926,-3.4791640603999996,3.9649070481999997,-0.29565879274113194,0.6572909963010645,-1.209513223991948,1756821132.961402
11.48554848,-4.4171505196,8.1403824852,-0.36285396894291366,0.9443976757074242,-0.992045146833577,1756821132.969434
13.5936251906,-5.776273756399999,13.105489380199998,-0.339641054984804,1.1191051687386415,-0.6206390994624761,1756821132.977427
15.156138348399999,-7.283751994399999,17.8648135316,0.09896016858807849,1.2632692602336182,-0.16859880574265224,1756821132.985423
14.7780723776,-7.343572559399999,20.827127910399998,0.5009095127756651,1.3402383500597383,0.32986722862692824,1756821132.993446
13.124631961,-5.9437713383999995,21.0831599286,0.5400048880203381,1.2693780173353533,0.5119050696099369,1756821133.001765
10.9663059758,-4.5535414078,19.3866487052,0.43493604959698695,1.2070697804924484,0.7110471721690749,1756821133.009428
8.8630149104,-3.2614172037999998,17.522639899799998,0.2907718533822553,1.319468879601128,0.6682865880419212,1756821133.017456
7.915457160799999,-2.3401805028,16.354942470999998,0.22113321622768156,1.5234979215191429,0.6829473537586737,1756821133.025535
6.9391855399999995,-0.993021379,15.859628192799999,0.22479840765686965,1.8020524526841453,0.6487388480597073,1756821133.033426
6.3338014222,0.1363908882,16.0127688392,0.09896016858807849,2.0732766358973564,0.6560692658246685,1756821133.041419
5.2570312522,1.7395820301999998,16.7689007808,-0.01832595714594046,2.398256994978578,0.71715578964447,1756821133.049458
4.1300118076,3.5341989802,17.644673852399997,-0.20036379812894903,2.7134634055288767,0.795346540133816,1756821133.057439
2.8091737323999997,5.2091748002,17.8815632898,-0.48136180770003606,3.0323351296814107,0.9126326833211273,1756821133.065437
1.1294122672,6.6664037636,16.9196486046,-0.700051580428218,3.254689919305856,1.0555751316061706,1756821133.073461
-0.693918554,7.29810893,14.859428345999998,-0.8478809855254303,3.364645714541376,1.0861183935160712,1756821133.081432
-2.4119651807999998,7.238288364999999,12.2488588894,-0.8930849433389134,3.265685580859883,0.8918632128625174,1756821133.089449
-3.6059836581999996,6.532405698,10.097711372,-0.9065239960325623,2.9614745526109307,0.678060379493212,1756821133.097427
-4.3214376156,5.2402814939999995,8.4418781328,-0.9028588220566666,2.3591615150141503,0.4471533718142397,1756821133.105453
-4.510470601,3.912264951,6.9918276372,-0.8319984195191118,1.5723670533085214,0.3078760625985072,1756821133.113429
-4.2999022122,2.7445675222,5.2761738330000005,-0.5705481150236538,0.736703459813514,0.23945917337362202,1756821133.121442
-3.6849468039999995,1.5720844482,3.4959138186,-0.2834414705238791,-0.14538592669112765,0.14782938764391973,1756821133.129414
-2.7493531674,0.5192425042,1.8759729183999998,0.0012217304763960308,-0.9566149804713845,-0.05497787143782138,1756821133.137440
-1.8257236438,-0.2967100024,0.8422735552,0.2504547476611863,-1.6236797856770324,-0.22602013813326566,1756821133.145445
-0.9978070242,-0.7992027483999999,0.47856452,0.4263839362622147,-2.138028333693054,-0.4019493441875866,1756821133.153482
0.045463629400000004,-0.8685946038,0.5575276658,0.4740314248416599,-2.456900057845588,-0.659734439800564,1756821133.161402
1.0073783146,-0.7322037155999999,0.9451649269999999,0.537561392160961,-2.6279423769009096,-0.8442157417363647,1756821133.169484
1.8329021115999997,-0.5551348432,1.4811571894,0.5045746867515607,-2.6254986716020223,-1.018923234767582,1756821133.177442
2.6129622792,-0.6221338759999999,1.9166509026,0.5473352708787143,-2.4837780236065456,-1.1276572471668287,1756821133.185417
3.409772205,-0.9643075078,2.2037896146,0.5986479159807625,-2.200336587989251,-1.1655308570285208,1756821133.193465
4.0582271296,-1.5601203352,2.4406790519999997,0.7122688851921785,-1.7006488580498598,-1.0800097585873836,1756821133.201436
4.5870409242,-2.3138594541999997,2.8857440556,0.8808676909348307,-1.0616838188947357,-0.8295549760196123,1756821133.209441
5.3024948815999995,-3.0293134116,4.5678983434,0.972497476664533,-0.37384952577718544,-0.6414085001079161,1756821133.217493
5.929414402799999,-3.0149564759999996,7.731209820599999,0.7941248096574199,0.4019493441875866,-0.5314527746855658,1756821133.225446
6.812365942199999,-2.9479574431999995,11.6985096914,0.38973202197033374,1.4220943268848572,-0.5876523242399058,1756821133.233463
7.0396840892,-3.9146577735999997,14.560325521,-0.07819075048934597,2.4678954576002265,-0.5326744877086693,1756821133.241438
6.5539411013999995,-5.8049876276,16.548761101599997,-0.18081611050661253,3.5332445726439055,-0.3335324375094089,1756821133.249440
5.1038906058,-7.893921757399999,17.9796690164,0.09896016858807849,4.4251076633333755,-0.01832595714594046,1756821133.257508
2.4622144554000003,-8.075776274999999,18.281164664,0.5803219762881145,4.922352071946315,0.28099800957108706,1756821133.265402
-1.1318050897999998,-6.4462640844,18.975083217999998,0.8930849433389134,5.0249775192300445,0.43127084071450633,1756821133.273436
-4.354937132,-3.0484559924,19.118652574,0.8808676909348307,4.72687498628344,0.4447098934081552,1756821133.281424
-7.042076911799999,1.447657673,18.1567378888,0.6023130899566581,3.863111696551079,0.3530801076784529,1756821133.289407
-8.877371845999999,4.6253260858,17.3072858658,0.079412480965742,2.310292243598431,0.16126842288427606,1756821133.297410
-9.6215396746,5.9509498062,17.635102562,-0.43371431912059094,0.3005456797401311,0.08552113334772216,1756821133.305429
-9.245866526399999,5.1134618962,18.843477975,-0.6890559886873613,-1.6151277072488452,0.030543261909900768,1756821133.313427
-7.788637563,3.8117664017999995,18.759729183999998,-0.6743952055173165,-3.249803014853564,0.030543261909900768,1756821133.321422
-5.618347464799999,3.4719855926,16.98904046,-0.6059783337457239,-4.530176571569897,-0.10262536001726658,1756821133.329414
-3.3044880105999996,3.2566315585999996,14.629717376399999,-0.6866125277345693,-5.341405799883079,-0.2565634000431664,1756821133.337419
-0.7633104094,2.3856441322,12.220145018199998,-0.8478809855254303,-5.789780919627007,-0.36896258641830876,1756821133.345412
1.339980656,1.1389835575999998,9.8751788702,-0.9395107712551326,-6.03290516225677,-0.5009095127756651,1756821133.353429
2.979064137,0.2560320182,7.9992059518,-0.9822712855691161,-6.05489646791153,-0.5522221578777133,1756821133.361395
4.3453658416,-0.31106693799999996,6.149554081999999,-0.9334020839665674,-5.926614663170192,-0.6462954045602076,1756821133.369469
5.1134618962,-0.9188438783999999,3.9050864832,-0.9065239960325623,-5.660277262236225,-0.7501425125071628,1756821133.377403
5.651846981199999,-1.5960126742,1.3710873497999998,-0.7977899836333155,-5.3133057196732905,-0.8161159233259635,1756821133.385407
6.003591903399999,-1.6893327556,-0.6747759731999999,-0.6365215956556246,-4.901582601487704,-0.9615018849236762,1756821133.393477
6.4271215036,-1.5122638832,-2.1224336461999997,-0.5106833391335408,-4.364021139513574,-1.1032226027323233,1756821133.401413
6.7788664257999995,-1.0552347666,-3.0819555087999997,-0.3885102914939378,-3.6383134808804267,-1.1838568665343387,1756821133.409417
6.9200429592,-0.7465606511999999,-3.5270205123999996,-0.2309070600388498,-2.7440066674387773,-1.2522737383059315,1756821133.417425
6.891329088,-0.550349198,-3.6705898684,-0.004886921905584123,-1.7715091907742444,-1.1667525700516244,1756821133.425434
6.900900378399999,-1.3830514628,-3.2733813167999997,0.10018189906447451,-0.9639453458764682,-1.2705997478117494,1756821133.433421
7.082754895999999,-2.0003996936,-2.8426732488,0.009773843811168246,-0.318871654339364,-1.3402383500597383,1756821133.441417
7.3770720758,-2.2636101795999997,-2.0362920326,-0.07208209810736581,0.22113321622768156,-1.4025466043559356,1756821133.449423
7.788637563,-2.4311077616,-0.5216353268,-0.0916297857297023,0.8161159233259635,-1.342681793559238,1756821133.457445
8.602197247,-2.5651058272,1.7371892076,-0.0158824961931484,1.3487904284879255,-1.3500121415110289,1756821133.465453
9.6885387074,-2.9336005076,4.3214376156,0.19181168479417682,1.7140878409303384,-1.39888143038004,1756821133.473421
10.896914120399998,-3.7304104334,7.2335027198,0.34697143784318024,1.8643607069803427,-1.37811195992143,1756821133.481411
11.559725980599998,-4.8646083458,9.499505721999999,0.5241223918271897,1.8753562289080294,-1.0995574287564276,1756821133.489415
12.023933564999998,-6.1351971463999995,10.5906328276,0.8100073058505682,1.696983684073964,-0.6230825604152682,1756821133.497394
12.727423409399998,-6.1950177114,12.299108163999998,1.1178834382622458,1.2266173808483223,-0.13439035240356337,1756821133.505430
13.39980656,-5.3096733494,15.302100527,1.197295831961525,0.7049384674272172,0.23823744289722598,1756821133.513408
13.471591238,-3.8213376921999997,18.0969173238,0.9590584414241766,0.5473352708787143,0.5448917750193372,1756821133.521426
12.7369946998,-2.6895326024,18.819549749,0.5534438883541094,0.8943067436284794,0.6609561702769601,1756821133.529432
11.7224379174,-1.9764714676,17.6973159496,0.13316862192716733,1.5564846269285433,0.7134906156685744,1756821133.537413
10.6145610536,-1.4045868661999998,16.512868762599997,-0.1282817000215832,2.371378767418233,0.7562511997957281,1756821133.545408
8.7194455544,-0.32303105099999996,15.840485612,-0.2675589743307307,3.2375857624494815,0.7440338775784752,1756821133.553425
7.077969250799999,0.8015955709999999,15.751951175799999,-0.37018431689470477,3.9632937003353086,0.7501425125071628,1756821133.561391
5.4939206896,2.4119651807999998,16.1204458562,-0.39828413530510604,4.470311900399539,0.9248500055383803,1756821133.569409
3.5006994637999997,4.271188340999999,17.1637165098,-0.5070181302510602,4.8356091906689045,1.0885618370155707,1756821133.577431
1.3686945272,6.3314085996,17.6063886908,-0.659734439800564,5.04086006778307,1.2730431913112492,1756821133.585410
-1.0241280728,7.6737820781999995,16.5679036824,-0.8845328649107262,5.04941202403821,1.3597860900419523,1756821133.593404
-3.2997023654,7.640282561799999,14.2229375344,-0.9859365293581818,4.806287781408447,1.26815630431225,1756821133.601518
-4.9028935074,6.9176501366,11.243873397399998,-1.0225884087434778,4.306599929296008,1.150870143671646,1756821133.609415
-5.850451257,5.7834522242,8.554340795,-1.0079276430267252,3.4611624047233702,0.9346237969896709,1756821133.617593
-6.0825550492,4.9842494758,6.6209401342,-0.9663887893759677,2.4324652912380342,0.8271115150668203,1756821133.625410
-5.8528440796,4.127618985,5.0823552024000005,-0.7513642255302664,1.197295831961525,0.8124507493500679,1756821133.633432
-5.156532702999999,3.2111679292,3.852444386,-0.5033529562751646,0.024434609527920613,0.7147123461449705,1756821133.641451
-4.103690759,2.1702900981999997,3.0173492986,-0.22357667718047364,-1.0067059125503293,0.6157521426503069,1756821133.649427
-3.0915267991999995,1.0600204117999998,2.0434705004,-0.007330382858376184,-1.8387043320694412,0.4630358680073881,1756821133.657430
-2.0769700168,0.1579262916,1.2179467034,0.1710422666954443,-2.455678205196144,0.27611108766550296,1756821133.665439
-1.1461620253999998,-0.2895315346,0.8446663778,0.36285396894291366,-2.8576275144771457,0.11484266478122689,1756821133.673419
-0.2656033086,-0.4139583098,0.8638089586,0.46792275500638725,-3.0592130954423684,-0.10629055144645466,1756821133.681439
0.6101697629999999,-0.3158525832,1.0983055734,0.5632177496185702,-3.075095643995394,-0.24678955623199822,1756821133.689423
1.4691930763999999,-0.33738798659999997,1.5050854154,0.6096435077216193,-2.9810224147661923,-0.39828413530510604,1756821133.697444
2.2707886474,-0.6125625856,1.698904046,0.6194173864393725,-2.719572162630612,-0.4850270165825167,1756821133.705459
2.9264220398,-1.0935199281999999,1.6701901747999999,0.6817256232822776,-2.322509757801902,-0.5009095127756651,1756821133.713418
3.5437702706,-1.6414763036,1.4787643668,0.735481729337118,-1.842369523498629,-0.4715879638888678,1756821133.721433
4.0654055974,-2.3234307446,1.7635102561999998,0.8466591852358643,-1.2400564859018488,-0.35674531656093345,1756821133.729442
4.622933263199999,-2.8618158295999994,2.9742784918,0.8698720991939739,-0.6279694648675597,-0.34819320322616126,1756821133.737429
5.410171898599999,-2.7828526838000003,6.1926248888,0.6670648575655254,0.10873401239924674,-0.34330626386728463,1756821133.745449
6.2668023894000005,-2.3186450994,11.483155657400001,0.23945917337362202,1.0629055493711317,-0.4153883445213579,1756821133.753588
7.101897476799999,-2.4981067944,16.618152957,-0.3420845333908886,2.1771236740311415,-0.3506366467256608,1756821133.761454
7.113861589799999,-4.5200418914,19.1712946712,-0.5253441048502933,3.3072244868705174,-0.16859880574265224,1756821133.769423
5.642275690799999,-7.238288364999999,19.5996099166,-0.11850785621041497,4.2296308394698885,0.09651670763528643,1756821133.777441
2.9742784918,-8.106882968799999,18.5156612788,0.46792275500638725,4.658458376311235,0.37995817815916555,1756821133.785436
-0.6723831506,-6.5395841658,17.886348935,0.9077457090556658,4.621806357299599,0.594982742004867,1756821133.793445
-4.295116567,-3.314059301,17.8121714344,0.9138544137975234,4.261395971482525,0.5815437067645106,1756821133.801422
-6.5539411013999995,0.8422735552,17.3048930432,0.5607743061190706,3.391523924648429,0.39217546546983334,1756821133.809421
-7.4488567537999995,3.7591243046,17.520247077199997,0.0024434609527920616,1.8655824200034463,0.14538592669112765,1756821133.817513
-7.6139615132,4.6755753604,18.494125875399998,-0.4654793115068877,-0.006108652381980153,0.05742133239061344,1756821133.825421
-6.831508523,3.8237305147999994,19.0396894282,-0.6621779007533561,-1.8350391580935457,0.047647488579445195,1756821133.833445
-5.254638429599999,2.7924239741999997,17.8193499022,-0.6304129083670593,-3.36586756719082,0.0012217304763960308,1756821133.841426
-3.1800612353999997,2.4550359876,15.694523433399999,-0.5705481150236538,-4.428772976935611,-0.09040805525330627,1756821133.849450
-1.0145567824,1.8855442087999998,13.569696964599999,-0.6328563518665589,-5.1092766777552745,-0.23701571242082994,1756821133.857462
1.232303639,0.8829515394,11.2271236392,-0.7672467217234148,-5.506339082583985,-0.359188760060433,1756821133.865417
3.2063822839999996,-0.08135596839999999,9.1740818484,-0.7843509483929592,-5.716476881603735,-0.4447098934081552,1756821133.873484
4.522434714,-0.5527420206,7.2311098972,-0.7770205829878756,-5.731137577507318,-0.5204571829447091,1756821133.881398
5.3096733494,-0.8063812161999999,4.9603212498,-0.6450736740838118,-5.578421267957814,-0.5681046540708617,1756821133.889452
5.812166095399999,-0.9427721043999999,2.7134608283999997,-0.48136180770003606,-5.303531910768707,-0.6524040918487729,1756821133.897419
6.1758751306,-0.8398807326,0.6867400862,-0.3249803241746367,-4.878369966782276,-0.7024950239277177,1756821133.905473
6.319444486599999,-0.45942193919999996,-0.813559684,-0.1954768762233649,-4.269947910284372,-0.7684684521998107,1756821133.913421
6.3840506968,0.0861416136,-1.9094724347999998,-0.10995574287564276,-3.541796528899045,-0.8686503687175778,1756821133.921455
6.3625152934,0.813559684,-2.4550359876,0.007330382858376184,-2.5692993140339,-0.9040805350797702,1756821133.929426
6.1902320662,1.2275179938,-2.7230321187999995,0.11484266478122689,-1.5919147932907354,-0.9896017033340774,1756821133.937465
6.2117674696,0.14356935599999998,-2.5435704238,0.039095375244672985,-0.7342600163140145,-1.0836749325632793,1756821133.945421
6.4677994878,-0.669990328,-2.4909283265999997,-0.08552113334772216,-0.11850785621041497,-1.2461651208305364,1756821133.953423
6.592226263,-1.4285150921999998,-1.9740786449999999,-0.14172073526193954,0.3518583772020568,-1.341460080536134,1756821133.961416
6.824330055199999,-2.1104695332,-0.7345965381999999,-0.11239920382843482,0.757472930272124,-1.4025466043559356,1756821133.969439
7.271787881399999,-2.5100709074,0.6747759731999999,-0.05253441048502932,1.1276572471668287,-1.4184290307359142,1756821133.977403
8.118847081799998,-3.0891339766,2.5818555854,0.04642575810304917,1.4844025811810548,-1.352455602463821,1756821133.985439
9.3631148338,-3.8261233374,5.5130632704,0.17226399717184032,1.6493361431346414,-1.2510520078295355,1756821133.993418
11.081161460599999,-4.8406801198,9.1381895094,0.26633724385433466,1.5992451412425266,-1.0152579909785164,1756821134.001435
12.882956878399998,-5.836094321399999,12.8111722004,0.44837510229063576,1.4709634761275285,-0.6084217946985158,1756821134.009495
13.914263419,-6.2524454538,16.319050131999997,0.7660249912470187,1.3023647401980463,-0.08918632477691024,1756821134.017440
14.2109734214,-5.522634560799999,18.5946244246,0.896750187127979,1.0164797912680825,0.3848450826114571,1756821134.025459
13.4285204312,-3.9984065645999993,19.293328623799997,0.6866125277345693,0.8258898020437168,0.7110471721690749,1756821134.033438
12.1124680012,-2.8546373618,18.338592406399997,0.32009338481576005,1.0164797912680825,0.9004153611038747,1756821134.041423
10.9088782334,-2.1918255016,16.7952218294,0.061086523819801536,1.5015067380374292,0.955393267448281,1756821134.049474
10.078568791199999,-1.6917255781999998,15.2374943168,-0.11484266478122689,2.124589350812575,1.1276572471668287,1756821134.057467
8.1403824852,-0.6795616184,14.3186504384,-0.1881464933649887,2.838079914121272,1.189965484009734,1756821134.065462
6.3242301318,0.5910271822,14.4191489876,-0.24068090385001803,3.595552704767056,1.218065302420135,1756821134.073424
4.943571491599999,2.1870398563999998,15.302100527,-0.3530801076784529,4.234517743922179,1.3353514456074467,1756821134.081427
2.9024938138,4.1252261624,16.694723280199998,-0.498466016916288,4.7403143531363545,1.4660765716752369,1756821134.089454
0.7585247641999999,5.8528440796,17.3144643336,-0.7476990515543709,5.066516442693972,1.5027284510605328,1756821134.097420
-1.6007983193999997,6.731009973799999,16.307086019,-1.0348057309607304,5.125159243761593,1.5125023995914562,1756821134.105479
-3.7806597079999995,6.453442552199999,13.847264386199999,-1.1875220405102345,4.869817486928361,1.293812522143519,1756821134.113414
-5.419743189,5.766702466,10.801201216399999,-1.1887437709866304,4.376238653717045,1.097113985256928,1756821134.121455
-6.544369811,4.926821733399999,8.4729848266,-1.0604620186051696,3.602883052718847,0.9089675093452318,1756821134.129405
-6.9367927173999995,4.0510486618,6.884150620199999,-0.9248500055383803,2.5766296619856917,0.8222246280678212,1756821134.137507
-6.707081747799999,3.2518459134,5.563312545,-0.7770205829878756,1.323134071030316,0.7269296683622233,1756821134.145416
-5.9772708548,2.5148565526,4.319044793,-0.5314527746855658,0.079412480965742,0.6914994321868608,1756821134.153444
-4.8885365718,1.7611174335999997,3.1250263156,-0.30298917559950816,-1.0225884087434778,0.5998696464571586,1756821134.161451
-3.7639099497999995,0.9762716208,2.0195422744,-0.09285151620609834,-1.8680258809562384,0.5522221578777133,1756821134.169422
-2.6943182475999996,0.1962114532,1.3016954943999999,0.15271630954950383,-2.4984387195101276,0.34330626386728463,1756821134.177468
-1.746760498,-0.2679961312,0.8973084749999999,0.2565634000431664,-2.9370400478027654,0.15027284859671178,1756821134.185461
-0.7872386353999999,-0.5335994398,0.825523797,0.3665191429188092,-3.1740557951301804,-0.03420845333908886,1756821134.193419
0.179461695,-0.6771687958,0.969093153,0.41661010990433894,-3.2559117719552995,-0.23701571242082994,1756821134.201473
1.0025926693999998,-0.669990328,1.1796615417999998,0.4618141026244071,-3.2058206478901368,-0.34452799434368064,1756821134.209468
1.6175480776,-0.861416136,1.5649059803999998,0.5106833391335408,-3.0323351296814107,-0.48136180770003606,1756821134.217424
2.464607278,-1.2370892842,1.6390834810000001,0.5253441048502933,-2.7317894150346946,-0.4642575810304917,1756821134.225456
3.0795626861999996,-1.7300107398,1.6797614652,0.6010913769335546,-2.332283566706485,-0.4520402762665313,1756821134.233427
3.6801611588,-2.2085752598,2.0315063874,0.6267477343911637,-1.8484782806003646,-0.33719761148530447,1756821134.241466
4.3836510032,-2.5770699402,3.4169506728,0.6255260039147678,-1.3084733576734413,-0.2907718533822553,1756821134.249425
5.2689953651999994,-2.5507488916,6.7118673929999995,0.49724430389318447,-0.5656612105713621,-0.34452799434368064,1756821134.257431
6.2715880346,-2.4861426814,11.617153723,0.1282817000215832,0.37140608227768585,-0.417831840380735,1756821134.265420
7.4943203832,-3.242274623,16.2520510992,-0.1637118838370681,1.5137241126145595,-0.49724430389318447,1756821134.273427
7.6115686905999995,-5.168496815999999,18.671194747799998,-0.1356120828799594,2.6645941341131576,-0.3885102914939378,1756821134.281440
6.159125372399999,-6.9655065886,18.771693297,0.2700024352835228,3.488040614830423,-0.15760323145508795,1756821134.289412
3.601198013,-6.855436749,17.874384822,0.755029399506162,3.9058722108650628,0.1111774733520388,1756821134.297433
0.7130611348,-4.584648101599999,17.335999736999998,1.0910052805150705,3.892433367610924,0.39584067435231396,1756821134.305447
-2.4622144554000003,-1.1940184774,17.623138449,0.9969320512858685,3.5625659819043625,0.4691444854827833,1756821134.313403
-4.7952164904,1.9477575963999998,17.335999736999998,0.5167920089688135,2.8906142198865457,0.3005456797401311,1756821134.321449
-5.651846981199999,3.9505501125999998,17.460426512199998,-0.03298672286269283,1.7043140494790479,0.158824961931484,1756821134.329440
-5.802594805,4.1180476945999995,18.4343053104,-0.4801400772236401,0.10995574287564276,0.014660765716752368,1756821134.337414
-5.1182475414,3.0197421211999997,19.3507563662,-0.6731734924942129,-1.464854841198841,0.012217304763960306,1756821134.345409
-3.7758740628,2.0315063874,18.4630191816,-0.5668829410477582,-2.9040533249400724,0.01710422666954443,1756821134.353402
-2.3545374384,2.1272192914,16.165909485599997,-0.5546656537370904,-4.073249495570829,-0.05742133239061344,1756821134.361420
-0.5670989562,1.8759729183999998,13.636695997399999,-0.6291911778906633,-4.808730963108559,-0.15760323145508795,1756821134.369432
1.4428720278,0.969093153,11.423335092399999,-0.7525859560066623,-5.28276245776339,-0.24923301718479024,1756821134.377429
3.2327033326,-0.2081755662,9.5306124158,-0.8637634817185786,-5.542991101595621,-0.2724458962363148,1756821134.385416
4.5296131818,-1.0145567824,7.5589265934,-0.8943067436284794,-5.599190738416424,-0.377514699753081,1756821134.393435
5.3766723822,-1.5002997702,5.2259245584,-0.8539896030008255,-5.479461396075708,-0.37629296927668493,1756821134.401416
5.893522063799999,-1.6031911419999998,2.6608187312,-0.7122688851921785,-5.213123977688448,-0.45692719817211547,1756821134.409460
6.1351971463999995,-1.6007983193999997,0.26321048599999997,-0.5131268000863328,-4.801400876956156,-0.5485569839018177,1756821134.417442
6.355336825599999,-1.2035897677999998,-1.4739787215999998,-0.3750712562535814,-4.256509067030234,-0.6169738556734105,1756821134.425456
6.5036918268,-0.7010970218,-2.3928225999999997,-0.26389378290154264,-3.538131477096197,-0.7611381042480195,1756821134.433428
6.6257257794,-0.32303105099999996,-2.8689942973999996,-0.2040289895581371,-2.693915805173003,-0.8649851947416822,1756821134.441428
6.4821564234,0.2105683888,-3.2877382523999996,-0.08552113334772216,-1.7470745463397388,-1.0079276430267252,1756821134.449421
6.1782679532,0.19142580799999998,-3.1680971224,0.03298672286269283,-0.8735372731698694,-1.0873401065391748,1756821134.457417
6.0969119848,-0.6915257314,-2.5962125209999996,0.06597344572538566,-0.13194689145077132,-1.1863003100338383,1756821134.465454
6.3146588414,-1.3328021881999998,-1.7419748528,0.079412480965742,0.3518583772020568,-1.4025466043559356,1756821134.473420
6.4558353747999995,-1.950150419,-0.6460621019999999,0.12583823906879116,0.7208209636203656,-1.4416419272407313,1756821134.481410
6.7381884416,-2.3497517932,0.5886343596,0.18203784098300857,1.0299187566952688,-1.4892894856333463,1756821134.489454
7.2933232848,-2.5986053435999996,2.1008982428,0.26633724385433466,1.3255775145298156,-1.4501940056689184,1756821134.497434
8.2504523248,-2.6344976825999997,3.8452659182,0.359188760060433,1.473406919627028,-1.2986995662221508,1756821134.505463
9.676574594399998,-2.7924239741999997,6.6185473115999995,0.4373794930964865,1.4795155545557157,-1.122770342714537,1756821134.513417
11.519047996400001,-3.4983066411999997,10.157531936999998,0.4386012235728825,1.3927727954513527,-0.8063421318746727,1756821134.521451
13.1198463158,-3.8739797894,13.658231400799998,0.3933972308528144,1.209513223991948,-0.36285396894291366,1756821134.529431
14.5340044724,-4.1228333398,16.9818619922,0.4019493441875866,0.9847147290686157,0.13439035240356337,1756821134.537392
14.8666068138,-3.8261233374,19.2550434622,0.2981022362406315,0.8515461595013258,0.4960225734167885,1756821134.545410
13.9956193874,-3.6705898684,19.0325109604,0.14905111812031574,0.9700540331650334,0.678060379493212,1756821134.553410
12.6604243766,-3.5318061576,17.4293198184,0.03665191429188092,1.4086552218313309,0.7623598172711231,1756821134.561421
11.8899354994,-3.0556344601999994,15.888342064,-0.019547687622336492,1.9401080663300667,0.9028588220566666,1756821134.569410
10.341779277199999,-2.1224336461999997,15.1393885902,-0.079412480965742,2.53386888587232,1.0164797912680825,1756821134.577412
8.5375910368,-0.7130611348,15.1896378648,-0.19303341527057286,3.2070425005395804,1.1068877767082188,1756821134.585429
6.7764736031999995,0.7633104094,15.6155602876,-0.359188760060433,3.8166858860881523,1.1887437709866304,1756821134.593409
5.036891572999999,2.3425733254,16.558332392,-0.518013721991917,4.296826120391425,1.3267992450062118,1756821134.601443
3.1944181709999997,4.0749768878,17.383856189,-0.6927211626632569,4.675562794966997,1.4892894856333463,1756821134.609419
1.0193424275999998,5.7332029496,17.1278241708,-0.8527678899777219,4.901582601487704,1.594358236790235,1756821134.617455
-1.4285150921999998,6.515655939799999,15.321243107799999,-1.011592817002621,4.922352071946315,1.5735889234112577,1756821134.625451
-3.6083764807999996,6.5276200528,12.6364961506,-1.0140362605021205,4.681671011016664,1.4110986653308304,1756821134.633466
-5.039284395599999,5.934200047999999,9.8967142736,-0.9859365293581818,4.236961204874972,1.2901473481676236,1756821134.641412
-6.0753765814,5.26420972,7.446463931199999,-0.8210028975914251,3.4978144237350057,1.0531316706533784,1756821134.649470
-6.355336825599999,4.2185462438,5.759523998200001,-0.7611381042480195,2.4605651096484356,0.9285151795142759,1756821134.657421
-6.0753765814,3.0723842184,4.108476404199999,-0.6462954045602076,1.248608564330036,0.8112290363269643,1756821134.665460
-5.479563754,2.0745771942,2.5531417142,-0.3848450826114571,0.09896016858807849,0.7464773210779748,1756821134.673420
-4.462614149,1.040877831,1.3471591237999998,-0.07208209810736581,-0.9211847617493145,0.6719517620178169,1756821134.681459
-3.4432717213999995,-0.0263210486,0.5647061336,0.20891591146372127,-1.7470745463397388,0.4935791299172889,1756821134.689418
-2.3617159061999997,-0.8111668613999999,0.2177468566,0.4618141026244071,-2.350609314412915,0.2907718533822553,1756821134.697438
-1.2777672683999999,-1.1653046061999999,0.33738798659999997,0.6731734924942129,-2.8026497477590797,0.004886921905584123,1756821134.705426
-0.2009970984,-1.2658031554,0.8063812161999999,0.8197811671150291,-3.081204139297742,-0.2858849140233787,1756821134.713446
0.8327022648,-1.1653046061999999,1.3112667848,0.9138544137975234,-3.156951638273806,-0.5045746867515607,1756821134.721535
1.7156538041999998,-1.0791629926,1.6462619487999999,0.9492845627064234,-3.1483994202192784,-0.6670648575655254,1756821134.729443
2.3449661479999997,-1.2131610581999999,1.8065810629999999,0.9517280236592153,-2.9798005621167487,-0.7269296683622233,1756821134.737442
3.086741154,-1.3208380752,1.7036896912,0.9651670588995717,-2.697580856975851,-0.73792519028991,1756821134.745431
3.6753755135999997,-1.5816557386,1.6893327556,1.0042624690508297,-2.2626448248321562,-0.6206390994624761,1756821134.753461
4.1563328562,-1.6414763036,1.9716858224,1.0164797912680825,-1.7030923190026517,-0.5057964172279568,1756821134.761426
4.7952164904,-1.5625131578,3.3882368015999997,0.9382889709655666,-1.0665707233470272,-0.3995058483282095,1756821134.769424
5.5322058512,-1.1676974288,6.628118602,0.6218608299388722,-0.29321529688175485,-0.43127084071450633,1756821134.777531
6.484549246,-0.7680960546,10.925627991599999,0.03298672286269283,0.7073819283800092,-0.4544837546726159,1756821134.785418
7.733602643199999,-1.2466605746,14.8498570556,-0.5595525756426746,1.793500374255958,-0.4251622232391112,1756821134.793442
8.1882389372,-3.0795626861999996,17.6303169168,-0.8820894214112266,2.8845057245841987,-0.2504547476611863,1756821134.801466
7.3005017526,-6.1208402108,19.1712946712,-0.5229006264442086,3.9095375244672983,0.023212879051524585,1756821134.809423
5.448457060199999,-7.884350467,20.374884439,0.1673770752662562,4.615697582744572,0.38117990863556156,1756821134.817446
2.0626130812,-6.664010941,20.8558417816,0.735481729337118,4.878369966782276,0.6805039102591741,1756821134.825477
-1.5696916256,-3.4695927699999998,20.757736054999995,0.8906414998394138,4.708549238577009,0.8417722982368651,1756821134.833420
-4.043870194,0.5790630692,19.4967185448,0.6304129083670593,3.9840631533406263,0.8124507493500679,1756821134.841457
-5.790630692,3.8955151927999996,18.1782732922,0.10262536001726658,2.6548203426618673,0.5424483315198376,1756821134.849462
-6.546762633599999,5.0775695571999995,18.137595307999998,-0.4520402762665313,0.8894197693630179,0.3457497073667842,1756821134.857419
-6.281159324999999,4.3645084224,18.699908619,-0.7819074874401671,-0.9480628496833198,0.2528982086139784,1756821134.865442
-5.072783911999999,2.8043880872,18.376877567999998,-0.7293731118617228,-2.4605651096484356,0.18570303241219668,1756821134.873455
-3.4217363179999998,2.3162522768,16.450655375,-0.6524040918487729,-3.608991809820582,0.029321531433504737,1756821134.881427
-1.4165509792,2.0530417908,13.926227531999999,-0.659734439800564,-4.383569019122128,-0.17226399717184032,1756821134.889448
0.7322037155999999,1.2634103328,11.8037938858,-0.7244861375962612,-4.868596157877692,-0.36285396894291366,1756821134.897426
2.9240292171999998,-0.0334995164,9.906285564,-0.8075638448977763,-5.18013701047966,-0.5167920089688135,1756821134.905465
4.488935197599999,-1.1772687192,7.891528934799999,-0.7782423134642716,-5.3462926868820775,-0.6633996137764597,1756821134.913420
5.3431728658,-1.8185451759999998,5.4508498828,-0.7220426940967616,-5.3316319909784955,-0.7831292179165632,1756821134.921451
6.173482308,-2.141576227,2.8977081686,-0.49968774739268407,-5.156924358320938,-0.7941248096574199,1756821134.929468
6.4342999714,-2.0841484845999996,0.7417750059999999,-0.35796702958403703,-4.759861953492228,-0.7745771394883759,1756821134.937423
6.675975054,-1.5864413838,-0.9475577495999999,-0.21380283336930536,-4.114788157235369,-0.8417722982368651,1756821134.945418
6.8099731196,-0.825523797,-2.3114666315999997,-0.08918632477691024,-3.2950069726670472,-0.8552113334772214,1756821134.953475
6.7334027964,-0.3062812928,-3.4337004309999997,-0.003665191429188092,-2.216219136542277,-0.8820894214112266,1756821134.961422
6.2859449702,0.09571290399999999,-4.175475436999999,0.18448130193580065,-1.1215486122381413,-0.8943067436284794,1756821134.969473
5.9868421452,-0.6173482307999999,-3.6538401101999995,0.3726277953007894,-0.18448130193580065,-1.0470230531779834,1756821134.977422
5.869593837799999,-1.4285150921999998,-2.5172493752,0.4447098934081552,0.5290092788261888,-1.307251644650338,1756821134.985421
6.0203416616,-1.8951154991999999,-1.2418749294,0.5253441048502933,1.0079276430267252,-1.464854841198841,1756821134.993435
6.1567325498,-1.9788642901999998,0.1603191142,0.5693263845472578,1.3817771338973257,-1.5723670533085214,1756821135.001437
6.5036918268,-1.8879370314,1.8472590472,0.6621779007533561,1.6639968390382236,-1.5027284510605328,1756821135.009454
7.1856462678,-1.926222193,3.9960137419999997,0.6438519436074157,1.8203784621899632,-1.307251644650338,1756821135.017417
8.1930245824,-2.0267207421999998,6.8745793297999995,0.4874704600820162,1.7702874602978487,-1.049466496677483,1756821135.025439
9.1142612834,-2.3952154225999998,10.042676452199998,0.30298917559950816,1.5369369043996215,-0.7415904340789756,1756821135.033462
10.222138147199999,-2.8043880872,13.4883409962,0.1551597705022959,1.2718214782881454,-0.48380525119953566,1756821135.041421
11.2295164618,-3.1034909122000003,16.977076346999997,-0.0916297857297023,0.990823416357181,-0.0757472895365539,1756821135.049449
11.808579531,-3.302095188,19.329220962799997,-0.32986722862692824,0.8979719176043751,0.24801128670839426,1756821135.057479
11.638689126400001,-3.7399817237999997,19.683358707599997,-0.4715879638888678,1.112996463996784,0.4740314248416599,1756821135.065412
10.9543418628,-3.924229064,18.3361995838,-0.42394049276271517,1.5467108354772523,0.6072000642221197,1756821135.073426
10.157531936999998,-3.5916267226,16.6516524734,-0.3127630019573839,2.0097466685780554,0.7440338775784752,1756821135.081465
8.7864445872,-2.3736800192,15.2614225428,-0.19792033717615698,2.4703389010997268,0.955393267448281,1756821135.089424
7.0253271536,-0.7202396025999999,14.6536456024,-0.16859880574265224,2.945592248404,1.1239920731909332,1756821135.097446
4.7904308451999995,1.0552347666,14.7350015708,-0.2858849140233787,3.478266544126452,1.3292428281320514,1756821135.105481
2.979064137,2.9647072013999995,15.3810636728,-0.4776966337241405,3.996280405744709,1.47585038057982,1756821135.113414
0.9762716208,4.8981078622,15.876377951,-0.7281513813853269,4.431216420435111,1.616349437725241,1756821135.121440
-1.3328021881999998,6.3744794064,15.330814398199998,-0.9627236154000721,4.794070267204977,1.6090190723201576,1756821135.129405
-3.4983066411999997,7.0660051377999995,13.244273091,-1.1215486122381413,4.987103630115672,1.4624113976993414,1756821135.137452
-5.448457060199999,6.795616184,10.3082797608,-1.218065302420135,4.902804471590441,1.2412782163782448,1756821135.145456
-6.795616184,6.223731582599999,7.8508509506,-1.1936306579856295,4.483750743653677,0.9321803534901714,1756821135.153477
-7.3627151402,5.0321059278,6.2356956956,-1.1410962125940152,3.576005086957889,0.6719517620178169,1756821135.161423
-7.4177500599999995,3.8835510797999997,5.180460929,-0.9944886077863689,2.3518311670623593,0.5717698280467574,1756821135.169452
-7.247859655399999,2.931207685,4.273581163599999,-0.7476990515543709,0.9847147290686157,0.5436700619962336,1756821135.177430
-6.5515482787999995,2.0315063874,3.2135607518,-0.4642575810304917,-0.3640756994193097,0.5326744877086693,1756821135.185454
-5.38385085,1.0049854919999999,2.2468604213999996,-0.1551597705022959,-1.5234979215191429,0.37140608227768585,1756821135.193444
-4.1706897918,-0.0095712904,1.3208380752,0.05742133239061344,-2.4532347616966446,0.21380283336930536,1756821135.201426
-2.8402804261999997,-0.7250252477999999,0.9643075078,0.24068090385001803,-3.1703904815279444,-0.02199114857512855,1756821135.209480
-1.5792629159999998,-1.0313065406,1.0456634761999999,0.4276056667386107,-3.6517523241345655,-0.277332818141899,1756821135.217429
-0.2895315346,-1.0360921857999998,1.3256237203999999,0.537561392160961,-3.940080786377199,-0.4801400772236401,1756821135.225484
0.8662017812,-0.8590233133999999,1.5768700934,0.6365215956556246,-4.070806034618037,-0.6487388480597073,1756821135.233443
1.8352949342,-0.6843472636,1.8448662246,0.6401867696315201,-4.031710572106901,-0.698829849951822,1756821135.241421
2.5890340532000002,-0.5742774239999999,1.9238293703999998,0.5204571829447091,-3.838677191742913,-0.7684684521998107,1756821135.249453
3.266202849,-0.6125625856,1.7587246109999999,0.37995817815916555,-3.483153710378131,-0.6462954045602076,1756821135.257967
3.852444386,-0.8350950873999999,1.651047594,0.24678955623199822,-2.9834658582656917,-0.5204571829447091,1756821135.265405
4.5966122145999995,-1.3375878333999998,2.3856441322,0.21380283336930536,-2.3774875245199683,-0.39217546546983334,1756821135.273421
5.5776694806,-1.8759729183999998,4.8311088294,0.08307767239493008,-1.6371188907305587,-0.39706240482870997,1756821135.281425
6.644868360199999,-2.1008982428,9.0664048314,-0.17837264955382048,-0.5607743061190706,-0.4740314248416599,1756821135.289405
7.8053873212,-2.8091737323999997,13.5984108358,-0.5644394800949663,0.7709118956993103,-0.5302310093025848,1756821135.297403
8.238488211799998,-4.606183505,16.0606252912,-0.7745771394883759,2.2272146759232565,-0.49235736453430784,1756821135.305420
7.5828548194,-7.5589265934,17.1350026386,-0.4850270165825167,3.6151005669223175,-0.35674531656093345,1756821135.313399
5.893522063799999,-9.942177903,18.003597242399998,0.16615534478986016,4.5692717722816445,-0.10629055144645466,1756821135.321417
2.9742784918,-9.7483592724,18.975083217999998,0.6829473537586737,4.996877439020255,0.05619960191421741,1756821135.329417
0.031106693799999998,-6.6209401342,19.5397893516,0.8698720991939739,4.88570005293468,0.1942551457469689,1756821135.337393
-2.7086751832,-2.3018953412,19.707286933599995,0.679282109969608,4.207639795614515,0.2516764781375823,1756821135.345416
-4.965106894999999,2.129612114,19.345970720999997,0.22357667718047364,2.9798005621167487,0.1551597705022959,1756821135.353421
-6.3290157769999995,5.084748025,19.0014042666,-0.36896258641830876,1.2144001284442394,0.047647488579445195,1756821135.361427
-6.6185473115999995,6.0131631938000005,18.5946244246,-0.795346540133816,-0.5888741245294717,-0.019547687622336492,1756821135.369429
-5.761916820799999,5.1134618962,17.955740790399997,-0.9468411192069238,-2.2492057197786295,-0.03787364476827695,1756821135.377434
-3.9888352742,3.4384860762,16.898113201199997,-0.9224064747724181,-3.49659255363227,-0.12583823906879116,1756821135.385413
-1.7994025952000001,1.8807585636,15.3356000434,-0.8991936306274786,-4.357912644211226,-0.16859880574265224,1756821135.393435
0.24885355039999998,0.9260223461999999,12.978669782399999,-0.9285151795142759,-4.871039339577804,-0.339641054984804,1756821135.401416
2.0482561456,0.2105683888,10.588240005000001,-0.895528456651583,-5.125159243761593,-0.4263839362622147,1756821135.409418
3.385843979,-0.5335994398,8.408378616399999,-0.8527678899777219,-5.28276245776339,-0.558330827712986,1756821135.417452
4.3501514868,-1.0576275892,6.1950177114,-0.7904596356815243,-5.263214857407515,-0.6316346388434554,1756821135.425455
4.814359071199999,-1.1389835575999998,4.0007993872,-0.6157521426503069,-5.097059704603873,-0.7672467217234148,1756821135.433419
5.022534637399999,-1.0073783146,1.8855442087999998,-0.5204571829447091,-4.736649318786799,-0.9211847617493145,1756821135.441417
5.1469614126,-0.6843472636,-0.05503491979999999,-0.3066543495754037,-4.236961204874972,-1.0335840004843346,1756821135.449411
5.1182475414,-0.6173482307999999,-1.4644074311999997,-0.14782938764391973,-3.5552356339525715,-1.0665707233470272,1756821135.457454
5.0919264928,-0.48574298779999997,-2.4717857457999997,-0.058643062867009474,-2.7721064858491786,-1.0604620186051696,1756821135.465414
4.8358944746,-0.6412764568,-2.9958138951999995,-0.0012217304763960308,-1.936442752727831,-1.032362287461231,1756821135.473415
4.9698925402,-2.1128623558,-2.787638329,-0.15271630954950383,-1.3182471665780247,-1.1447613865699107,1756821135.481420
5.1756752837999995,-3.1417760737999996,-2.5316063108,-0.22357667718047364,-0.8552113334772214,-1.2828170002158321,1756821135.489410
5.7690952886,-4.0127635002,-2.1822542112,-0.17837264955382048,-0.4789183642005365,-1.429424692289941,1756821135.497421
6.321837309199999,-4.3525443094,-0.9738787981999999,0.01710422666954443,-0.1710422666954443,-1.464854841198841,1756821135.505406
7.2335027198,-4.465006971599999,1.0121639597999998,0.26389378290154264,0.08307767239493008,-1.6175711507483448,1756821135.513428
8.6548393442,-4.6636112473999995,3.7184463204,0.2834414705238791,0.26511551337793865,-1.6432275256592463,1756821135.521436
10.3633146806,-4.54636294,6.6209401342,0.19181168479417682,0.33841932450840795,-1.429424692289941,1756821135.529465
12.411570826199998,-4.6492543118,9.3774717694,0.1282817000215832,0.4141666314982544,-0.9468411192069238,1756821135.537406
14.349757132199999,-5.3790652048,11.691331223599999,0.2907718533822553,0.4874704600820162,-0.40561451816348215,1756821135.545406
15.649059804,-6.0825550492,13.579268254999999,0.6719517620178169,0.44837510229063576,0.007330382858376184,1756821135.553443
16.4219415038,-5.7044890784,15.742379885399998,0.8698720991939739,0.4288273972150068,0.35674531656093345,1756821135.561407
15.924234403,-4.7449672158,17.228322719999998,0.8833111518876227,0.736703459813514,0.6328563518665589,1756821135.569410
14.5866465696,-4.1156548719999995,17.2713935268,0.6304129083670593,1.3817771338973257,0.8564330639536175,1756821135.577417
13.0002051858,-3.4384860762,16.139588437,0.31398473243377983,2.204001761965147,0.992045146833577,1756821135.585439
11.090732751,-2.4406790519999997,15.247065607199998,0.05619960191421741,3.138625628767988,1.1472049696957503,1756821135.593407
8.458627890999999,-1.1174481541999999,15.330814398199998,-0.14905111812031574,4.032932424756345,1.229060824347822,1756821135.601429
6.2165531148,0.658026215,15.902698999599998,-0.3848450826114571,4.884478182831943,1.429424692289941,1756821135.609439
3.8931223702,2.7948167968,16.6516524734,-0.49724430389318447,5.651725305981085,1.5735889234112577,1756821135.617417
1.3663017045999999,4.6085763276,17.0871461866,-0.6841690842350697,6.1782908446018014,1.6749925005922506,1756821135.625442
-1.4524433181999998,5.7092747236,16.3477640032,-0.8735372731698694,6.3529984772593595,1.5711453402854179,1756821135.633421
-3.9888352742,6.1519469046,14.368899713,-1.0910052805150705,6.114761139081889,1.3634512640178478,1756821135.641432
-6.185446420999999,6.051448355399999,11.583654206599999,-1.1276572471668287,5.486791482228112,1.0421360789125218,1756821135.649453
-7.4608208668,5.0823552024000005,9.166903380599999,-1.038470904936626,4.500855162309439,0.8478809855254303,1756821135.657446
-8.01595571,4.137190275399999,6.8506511038,-0.7611381042480195,3.197268691634997,0.7269296683622233,1756821135.665455
-7.989634661399999,3.6442688197999997,4.3142591478,-0.40805796166298175,1.7507397377689269,0.7049384674272172,1756821135.673419
-7.2693950588,3.2853454297999996,2.2827527604,-0.079412480965742,0.2309070600388498,0.736703459813514,1756821135.681446
-6.2117674696,2.7780670385999997,1.0624132344,0.1710422666954443,-1.2730431913112492,0.6267477343911637,1756821135.689447
-4.9674997176,1.9357934833999997,0.2679961312,0.32009338481576005,-2.4532347616966446,0.5351179486614615,1756821135.697415
-3.5222348671999995,1.1078768638,-0.1483550012,0.5436700619962336,-3.3194417392746,0.2907718533822553,1756821135.705459
-2.1918255016,0.4378865357999999,-0.11485548479999999,0.8319984195191118,-3.903428767365563,0.14416419621473162,1756821135.713420
-1.0025926693999998,0.0885344362,0.2009970984,1.0983356982800316,-4.173431220102378,0.004886921905584123,1756821135.721442
0.09332008139999999,-0.2775674216,0.8111668613999999,1.2925908091204152,-4.227187395970389,-0.14172073526193954,1756821135.729486
1.1868400096,-0.5407779076,1.2131610581999999,1.3060299141739418,-4.134336019390631,-0.26633724385433466,1756821135.737422
2.1080767106,-0.9643075078,1.3854442854,1.1728612049803118,-3.9303069774726156,-0.39706240482870997,1756821135.745439
2.7708885708,-1.3184452526,1.2131610581999999,0.9957103208094725,-3.634648167278191,-0.4740314248416599,1756821135.753452
3.4719855926,-1.5361921092,0.9355936366,0.7941248096574199,-3.226590100895454,-0.47525315531805595,1756821135.761481
4.2113677759999995,-1.5840485612,1.5002997702,0.5546656537370904,-2.7183503099811683,-0.5021312257987686,1756821135.769436
5.230710203599999,-1.3184452526,3.9050864832,0.22357667718047364,-1.9804251196912581,-0.5619960365954666,1756821135.777473
6.635297069799999,-1.0289137179999999,8.525626923799999,-0.2223549467040776,-0.9162978572970231,-0.5644394800949663,1756821135.785432
8.712267086599999,-1.9525432416,14.3377930192,-0.6426302305843121,0.5400048880203381,-0.555887366760194,1756821135.793419
10.695917022,-5.3431728658,20.1332093564,-0.6059783337457239,2.1123719762354445,-0.5338962181850654,1756821135.801422
11.6027967874,-10.1001041946,23.365912688999998,0.19792033717615698,3.450166743169343,-0.4544837546726159,1756821135.809465
9.6502535458,-11.5645116258,23.102702203,1.0164797912680825,4.063475686666246,-0.2357939819444339,1756821135.817418
5.9605210966,-9.2745803976,22.002003807,1.473406919627028,4.075692939070328,0.11850785621041497,1756821135.825547
2.021935097,-5.2139604454,20.9204479918,1.4196507437590176,3.6908477866457012,0.3005456797401311,1756821135.833439
-0.7944171031999999,-0.7322037155999999,19.410576931199998,0.9969320512858685,3.0115656766760934,0.33719761148530447,1756821135.841426
-2.4861426814,2.7445675222,17.898313048,0.5314527746855658,2.0659462879455655,0.2150245638457014,1756821135.849432
-3.2781669620000002,4.362115599799999,17.6422810298,0.058643062867009474,0.8820894214112266,0.10262536001726658,1756821135.857460
-3.0245277664,4.9100719752,18.099310146399997,-0.2675589743307307,-0.43371431912059094,0.0439822971502571,1756821135.865419
-2.1607188078,4.319044793,18.2476651476,-0.4630358680073881,-1.6212363247242403,0.014660765716752368,1756821135.873457
-0.6652046828,3.5653056739999998,16.8789706204,-0.6096435077216193,-2.5912903578892736,0.0012217304763960308,1756821135.881498
0.7322037155999999,2.476571391,14.9527484274,-0.6914994321868608,-3.189938343683206,-0.04520402762665313,1756821135.889421
1.9429719511999999,1.339980656,12.3732856646,-0.7672467217234148,-3.618765601271873,-0.07330382858376185,1756821135.897425
2.8857440556,0.25124637299999997,9.655039190999998,-0.7806857744170635,-3.825238086689387,-0.16126842288427606,1756821135.905494
3.7543386593999997,-0.6460621019999999,7.3675007854,-0.7513642255302664,-3.9498545952817823,-0.24556782575560218,1756821135.913472
4.259224228,-1.4021940436,5.2450671392,-0.6524040918487729,-3.8985418629132713,-0.4251622232391112,1756821135.921465
4.6325045536,-1.962114532,3.1561330094,-0.455705485149012,-3.770260319971321,-0.5436700619962336,1756821135.929431
4.761716974,-2.0410776778,1.3854442854,-0.2504547476611863,-3.535688033596698,-0.6682865880419212,1756821135.937438
4.8311088294,-1.6821542877999998,0.0263210486,-0.06841690667817772,-3.175277385980236,-0.8491027160018264,1756821135.945428
4.8047877808,-1.2945170266000001,-1.0217352502,0.12095131716320703,-2.693915805173003,-0.877202447145765,1756821135.953466
4.5511485852,-0.8901300072,-1.698904046,0.26022859147235455,-2.087937331800939,-0.9309586230137754,1756821135.961452
4.2903309218,-0.5335994398,-2.3234307446,0.3103195584578843,-1.4306464053130443,-0.8869763258635183,1756821135.969452
4.1802610821999995,-0.6149554081999999,-2.7230321187999995,0.26267205242514663,-0.8808676909348307,-0.9517280236592153,1756821135.977423
4.2376888246,-1.2059825903999999,-2.644068973,0.28099800957108706,-0.4007275788046055,-0.9944886077863689,1756821135.985465
4.2329031794,-1.746760498,-2.0985054202,0.3726277953007894,-0.026878070480712675,-1.0152579909785164,1756821135.993422
4.319044793,-2.0123638066,-1.0145567824,0.3420845333908886,0.3420845333908886,-1.0372491744602301,1756821136.001449
4.594219391999999,-1.9477575963999998,0.203389921,0.31398473243377983,0.6511823613723768,-0.9798278246163241,1756821136.009834
5.0871408476,-1.9525432416,1.6845471104,0.3335324375094089,0.9028588220566666,-0.992045146833577,1756821136.017442
6.221338759999999,-2.4239292938,4.007977855,0.32986722862692824,0.9443976757074242,-0.9749409376173249,1756821136.025455
8.1140614366,-2.5651058272,7.0372912666,0.14782938764391973,0.6511823613723768,-0.8845328649107262,1756821136.033458
9.954142015999999,-2.7182464736,10.7677017,-0.1624901533606721,0.2565634000431664,-0.6023130899566581,1756821136.041415
12.244073244199999,-3.4648071248,14.687145118799998,-0.19792033717615698,-0.006108652381980153,-0.10629055144645466,1756821136.049451
14.9934264116,-4.7760739096,19.680965885,0.158824961931484,-0.18936822384138474,0.29443706226473587,1756821136.057447
16.089339162399998,-4.8358944746,22.518853488599998,0.3274237676741362,-0.20769418098732523,0.5900958375525753,1756821136.065436
15.515061738399998,-4.457828503799999,21.528224932199997,0.3530801076784529,0.030543261909900768,0.7464773210779748,1756821136.073445
14.6703953606,-4.462614149,19.2430793492,0.2797762965479835,0.4886921905584123,0.9236282052488142,1756821136.081422
13.308879301199998,-3.5557343836,17.276179172,0.19792033717615698,1.174082935456708,1.0922270808046364,1756821136.089432
11.404192511599998,-2.3425733254,16.043875532999998,0.05253441048502932,2.0671680009686693,1.1252137862140368,1756821136.097419
9.3726861242,-0.658026215,15.486347867199997,-0.11850785621041497,3.0066787722238018,1.218065302420135,1756821136.105447
7.4871419154,1.2538390423999999,15.7974148052,-0.30543261909900765,3.8423422435457613,1.3793336903978262,1756821136.113495
5.563312545,3.1609186545999997,16.6014031988,-0.49480084294039245,4.5142940055635785,1.6383406212069547,1756821136.121416
3.2231320422,5.048855686,17.0703964284,-0.5876523242399058,4.968777882409242,1.7825047127019313,1756821136.129442
0.5120640364,6.654439650599999,16.2927290834,-0.7904596356815243,5.187467620230839,1.755626624767926,1756821136.137442
-1.8592231602,7.113861589799999,14.036297371599998,-0.9761626506404285,5.062850867292349,1.5931365237671316,1756821136.145416
-3.7136606752,6.5539411013999995,11.045269121599999,-1.0213666782670816,4.597371852491434,1.314581992602129,1756821136.153460
-4.8598227006,5.5585268997999995,8.413164261599999,-0.9456193887305278,3.84967285329694,1.095892254780532,1756821136.161457
-5.1780681064000005,4.429114632599999,6.1423756142,-0.7440338775784752,2.8356364531684797,0.9529497366823189,1756821136.169435
-5.1445685899999996,3.4121650275999995,3.8955151927999996,-0.44837510229063576,1.7116443974308388,0.9077457090556658,1756821136.177454
-4.7425743932,2.5674986497999996,2.2564317118,-0.1392772743091475,0.5363396791378575,0.8649851947416822,1756821136.185475
-3.9936209193999996,1.5577275126,0.9834500885999999,0.1466076571675237,-0.5619960365954666,0.7208209636203656,1756821136.193423
-3.2327033326,0.6628118601999999,0.3038884702,0.3494149162492648,-1.4660765716752369,0.5534438883541094,1756821136.201419
-2.3904297774,0.0167497582,0.062213387599999996,0.5473352708787143,-2.1148154197349442,0.32009338481576005,1756821136.209444
-1.4859428345999999,-0.2727817764,0.040677984199999996,0.7342600163140145,-2.522873486117681,0.20280725908174108,1756821136.217455
-0.5240281494,-0.4378865357999999,0.2608176634,0.896750187127979,-2.719572162630612,0.012217304763960306,1756821136.225437
0.5766702466,-0.6747759731999999,0.7298108929999999,1.0543534011297744,-2.8026497477590797,-0.2431243648028101,1756821136.233460
1.4668002538,-0.8470592003999999,1.1294122672,1.0714576103460265,-2.7916540862050523,-0.3933972308528144,1756821136.241430
2.3066809864,-1.1461620253999998,1.4763715441999998,1.038470904936626,-2.6963592486725023,-0.6010913769335546,1756821136.249425
3.1920253484,-1.3208380752,1.5577275126,0.9957103208094725,-2.4874433197554886,-0.6621779007533561,1756821136.257444
3.864408499,-1.4333007374,1.5888342063999998,0.9761626506404285,-2.107485071783153,-0.6560692658246685,1756821136.265462
4.4171505196,-1.7156538041999998,2.5148565526,0.9786061115932205,-1.500285007561033,-0.555887366760194,1756821136.273460
5.180460929,-1.8616159827999998,4.9316073786,0.8173377236155296,-0.700051580428218,-0.5009095127756651,1756821136.281408
5.946164161,-1.43569356,9.0400837828,0.49480084294039245,0.36041049053682905,-0.4618141026244071,1756821136.289409
