acc_x,acc_y,acc_z,gyro_x,gyro_y,gyro_z,timestamp,deltaYaw
1.658226062,0.289531535,9.824929596,0.042760567,0.042760567,-0.039095375,1756822657,-0.017929089
1.588834206,0.24885355,9.891928628,0.017104227,0.072082098,-0.058643063,1756822657,-0.026893634
1.519442351,0.234496615,9.889535806,0.015882496,0.095294977,-0.02687807,1756822657,-0.012326249
1.452443318,0.145962179,9.882357338,0.017104227,0.10140363,-0.065973446,1756822657,-0.030255338
1.363908882,0.028713871,9.86560758,0.007330383,0.108734012,-0.042760567,1756822657,-0.019609942
1.282552914,-0.069391855,9.860821935,-0.019547688,0.10140363,-0.035430184,1756822657,-0.016248237
1.263410333,-0.220139679,9.853643467,-0.003665191,0.12705997,-0.065973446,1756822657,-0.030255338
1.241874929,-0.299102825,9.853643467,0.013439035,0.117286126,-0.035430184,1756822657,-0.016248237
1.225125171,-0.339780809,9.844072176,0.00122173,0.111177473,-0.042760567,1756822657,-0.019609942
1.18684001,-0.370887503,9.908678387,0.020769418,0.111177473,-0.081855942,1756822657,-0.037539031
1.170090251,-0.442672181,9.925428145,0.002443461,0.108734012,-0.063529985,1756822657,-0.02913477
1.138983558,-0.483350165,9.923035322,-0.035430184,0.120951317,-0.07819075,1756822657,-0.035858178
1.103091219,-0.490528633,9.923035322,-0.003665191,0.100181899,-0.045204028,1756822657,-0.02073051
1.038485008,-0.48813581,9.9206425,-0.030543262,0.085521133,-0.030543262,1756822657,-0.014007101
1.026520895,-0.512064036,9.913464032,0,0.105068821,-0.046425758,1756822657,-0.021290793
1.014556782,-0.54317073,9.913464032,-0.046425758,0.07819075,-0.065973446,1756822657,-0.030255338
1.028913718,-0.519242504,9.899107096,-0.02687807,0.048869219,-0.10140363,1756822657,-0.046503576
1.050449121,-0.461814762,9.937392258,-0.003665191,0.032986723,0.012217305,1756822657,0.005602841
1.052841944,-0.47856452,9.968498952,-0.017104227,0.029321531,-0.091629786,1756822657,-0.042021303
1.071984525,-0.466600407,10.00439129,-0.009773844,0.02687807,0,1756822657,0
1.06719888,-0.41395831,10.02353387,-0.032986723,0.039095375,-0.05253441,1756822657,-0.024092214
1.119840977,-0.416351132,10.05224774,-0.002443461,0.039095375,-0.053756141,1756822657,-0.024652498
1.127019445,-0.387637261,10.09771137,-0.021991149,0.012217305,-0.003665191,1756822657,-0.001680852
1.129412267,-0.356530567,10.12642524,-0.006108652,0.019547688,-0.054977871,1756822657,-0.025212782
1.119840977,-0.313459761,10.0905329,0.029321531,-0.007330383,-0.009773844,1756822657,-0.004482272
1.143769203,-0.208175566,10.07139032,0.015882496,0.015882496,-0.068416907,1756822657,-0.031375906
1.134197912,-0.11006984,10.06660468,0.02565634,0.006108652,-0.059864793,1756822657,-0.027453918
1.079162993,-0.076570323,10.13838936,0.042760567,0.009773844,-0.035430184,1756822657,-0.016248237
1.02173525,-0.00957129,10.13599653,0.046425758,0.009773844,-0.047647489,1756822657,-0.021851078
0.993021379,0.016749758,10.09292573,0.046425758,0.006108652,-0.039095375,1756822657,-0.017929089
0.95712904,0.047856452,10.04028363,0.056199602,0.003665191,-0.05253441,1756822657,-0.024092214
0.914058233,0.105284194,9.990034355,0.030543262,0.018325957,-0.065973446,1756822657,-0.030255338
0.885344362,0.11006984,9.949356371,0.032986723,0.013439035,-0.00122173,1756822657,-0.000560284
0.851844846,0.086141614,9.98524871,0.032986723,-0.007330383,-0.064751715,1756822657,-0.029695054
0.844666378,0.033499516,9.992427178,0.036651914,-0.02687807,-0.013439035,1756822657,-0.006163124
0.851844846,-0.05503492,10.00678411,0.017104227,-0.032986723,-0.030543262,1756822657,-0.014007101
0.914058233,-0.102891372,10.03549798,0.048869219,-0.056199602,-0.032986723,1756822657,-0.015127669
0.971485976,-0.11006984,9.990034355,0.02565634,-0.034208453,-0.010995574,1756822657,-0.005042556
1.043270654,-0.155533469,10.02592669,0.045204028,-0.059864793,-0.030543262,1756822657,-0.014007101
1.06719888,-0.181854518,10.05464057,-0.002443461,-0.07819075,-0.039095375,1756822657,-0.017929089
1.095912751,-0.196211453,10.0689975,0.019547688,-0.073303829,-0.029321531,1756822657,-0.013446817
1.119840977,-0.191425808,10.05224774,0.039095375,-0.079412481,-0.039095375,1756822657,-0.017929089
1.172483074,-0.251246373,10.04506927,0.015882496,-0.087964594,-0.003665191,1756822657,-0.001680852
1.20598259,-0.296710002,9.980463065,0.02687807,-0.073303829,-0.029321531,1756822657,-0.013446817
1.227517994,-0.301495648,10.02353387,0.012217305,-0.096516708,0.003665191,1756822657,0.001680852
1.244267752,-0.270388954,10.04985492,-0.002443461,-0.069638637,-0.02687807,1756822657,-0.012326249
1.263410333,-0.241675083,10.05464057,0.00122173,-0.092851516,0.02565634,1756822657,0.011765965
1.30648114,-0.22971097,10.02114105,0.019547688,-0.061086524,0.009773844,1756822657,0.004482272
1.299302672,-0.24885355,10.05942621,0.00122173,-0.059864793,0.018325957,1756822657,0.008404261
1.30648114,-0.275174599,10.03549798,-0.006108652,-0.059864793,0.002443461,1756822657,0.001120568
1.311266785,-0.270388954,10.05464057,-0.019547688,-0.029321531,0.006108652,1756822657,0.00280142
1.311266785,-0.308674115,10.08335444,-0.009773844,-0.009773844,0.05131268,1756822657,0.02353193
1.246660575,-0.282353067,10.09531855,-0.021991149,-0.007330383,0.008552113,1756822657,0.003921988
1.191625655,-0.275174599,10.07378315,-0.006108652,0.013439035,0.045204028,1756822657,0.02073051
1.134197912,-0.251246373,10.06421186,-0.009773844,0.012217305,0.029321531,1756822657,0.013446817
1.110269686,-0.246460728,10.00199847,-0.006108652,0.006108652,0.035430184,1756822657,0.016248237
1.083948638,-0.23928226,9.999605645,-0.012217305,0.008552113,0.032986723,1756822657,0.015127669
1.07677017,-0.217746857,9.982855887,-0.009773844,0.008552113,0.034208453,1756822657,0.015687953
1.01216396,-0.153140646,9.990034355,0.013439035,0.002443461,0.047647489,1756822657,0.021851078
1.002592669,-0.133998066,10.0163554,0,-0.003665191,0.037873645,1756822657,0.017368805
1.000199847,-0.06460621,10.03549798,0.009773844,-0.02687807,0.02443461,1756822657,0.011205681
0.952343395,-0.026321049,10.00199847,0.023212879,-0.014660766,0.003665191,1756822657,0.001680852
0.973878798,0,9.990034355,0.017104227,-0.020769418,0.039095375,1756822657,0.017929089
1.007378315,0.038285162,9.975677419,0.017104227,-0.02687807,0.035430184,1756822657,0.016248237
1.007378315,0.035892339,9.968498952,0.003665191,-0.036651914,-0.02687807,1756822657,-0.012326249
1.016949605,0.014356936,9.951749193,0.007330383,-0.017104227,0.021991149,1756822657,0.010085113
0.959521863,0.059820565,9.973284597,0.048869219,-0.041538836,0.009773844,1756822657,0.004482272
0.95712904,0.038285162,10.0163554,0.02565634,-0.047647489,0.015882496,1756822657,0.007283692
0.971485976,-0.002392823,10.00199847,0.006108652,-0.034208453,0.015882496,1756822657,0.007283692
0.954736217,-0.014356936,9.980463065,0.034208453,-0.05009095,-0.029321531,1756822657,-0.013446817
0.969093153,-0.023928226,9.942177903,0.057421332,-0.056199602,-0.014660766,1756822657,-0.006723409
0.981057266,-0.057427742,9.963713306,0.019547688,-0.069638637,-0.046425758,1756822657,-0.021290793
0.983450089,-0.081355968,9.975677419,0.02565634,-0.058643063,-0.009773844,1756822657,-0.004482272
1.007378315,-0.11006984,10.00678411,0.019547688,-0.07819075,0.006108652,1756822657,0.00280142
1.02173525,-0.136390888,9.982855887,0.032986723,-0.083077672,0.019547688,1756822657,0.008964545
1.031306541,-0.179461695,10.02831952,0.009773844,-0.083077672,-0.034208453,1756822657,-0.015687953
1.052841944,-0.205782744,9.997212823,0.006108652,-0.080634211,0.019547688,1756822657,0.008964545
1.095912751,-0.236889437,10.00199847,0.02687807,-0.089186325,-0.040317106,1756822657,-0.018489373
1.07677017,-0.253639196,10.01874823,-0.013439035,-0.081855942,-0.029321531,1756822657,-0.013446817
1.134197912,-0.277567422,10.00199847,-0.006108652,-0.086742864,0,1756822657,0
1.160518961,-0.277567422,10.04267645,-0.015882496,-0.095294977,-0.013439035,1756822657,-0.006163124
1.184447187,-0.275174599,9.997212823,0.019547688,-0.114842665,-0.003665191,1756822658,-0.001680852
1.189232832,-0.277567422,9.98524871,0,-0.085521133,-0.007330383,1756822658,-0.003361704
1.272981623,-0.265603309,9.975677419,0.002443461,-0.092851516,-0.019547688,1756822658,-0.008964545
1.265803155,-0.256032018,9.961320484,-0.003665191,-0.095294977,-0.003665191,1756822658,-0.001680852
1.311266785,-0.210568389,9.982855887,-0.023212879,-0.059864793,0.020769418,1756822658,0.009524829
1.253839042,-0.193818631,10.05224774,0.020769418,-0.073303829,-0.020769418,1756822658,-0.009524829
1.265803155,-0.169890405,10.06660468,0.007330383,-0.058643063,0.05131268,1756822658,0.02353193
1.270588801,-0.145962179,10.08574726,0.017104227,-0.05253441,-0.015882496,1756822658,-0.007283692
1.25144622,-0.138783711,10.02831952,-0.015882496,-0.042760567,0.043982297,1756822658,0.020170225
1.249053397,-0.165104759,10.00917694,-0.02565634,-0.059864793,-0.007330383,1756822658,-0.003361704
1.25144622,-0.098105727,10.04267645,-0.012217305,-0.057421332,0.008552113,1756822658,0.003921988
1.241874929,-0.098105727,10.06181903,-0.003665191,-0.046425758,0.035430184,1756822658,0.016248237
1.215553881,-0.100498549,10.06181903,0.02565634,-0.032986723,-0.013439035,1756822658,-0.006163124
1.201196945,-0.095712904,10.06421186,0,-0.058643063,-0.006108652,1756822658,-0.00280142
1.213161058,-0.093320081,10.10010419,0.029321531,-0.032986723,-0.020769418,1756822658,-0.009524829
1.201196945,-0.059820565,10.07617597,0.007330383,-0.042760567,-0.019547688,1756822658,-0.008964545
1.210768236,-0.078963146,10.04985492,0.019547688,-0.040317106,-0.034208453,1756822658,-0.015687953
1.182054364,-0.105284194,9.992427178,0.02687807,-0.046425758,-0.048869219,1756822658,-0.022411362
1.182054364,-0.100498549,9.987641532,-0.009773844,-0.020769418,-0.046425758,1756822658,-0.021290793
1.172483074,-0.038285162,10.0163554,0.043982297,-0.015882496,-0.064751715,1756822658,-0.029695054
1.158126138,0.007178468,10.03310516,0.004886922,-0.013439035,-0.029321531,1756822658,-0.013446817
1.119840977,-0.026321049,10.03549798,0.039095375,-0.028099801,-0.036651914,1756822658,-0.016808521
1.146162025,-0.066999033,10.03789081,0.036651914,-0.034208453,-0.030543262,1756822658,-0.014007101
1.184447187,-0.093320081,10.00917694,0.032986723,-0.034208453,-0.014660766,1756822658,-0.006723409
1.203589768,-0.114855485,9.970891774,0.067195176,-0.018325957,-0.042760567,1756822658,-0.019609942
1.184447187,-0.114855485,10.02353387,0.019547688,-0.007330383,-0.042760567,1756822658,-0.019609942
1.1964113,-0.124426775,10.00917694,0.012217305,-0.037873645,-0.02443461,1756822658,-0.011205681
1.213161058,-0.133998066,10.04267645,0.05253441,-0.046425758,-0.02687807,1756822658,-0.012326249
1.234696462,-0.124426775,10.04506927,0.015882496,-0.02565634,-0.029321531,1756822658,-0.013446817
1.198804123,-0.11964113,10.06660468,0.046425758,-0.046425758,-0.039095375,1756822658,-0.017929089
1.1964113,-0.177068872,10.06181903,0.003665191,-0.043982297,-0.019547688,1756822658,-0.008964545
1.244267752,-0.18424734,10.0163554,0.006108652,-0.047647489,-0.030543262,1756822658,-0.014007101
1.239482107,-0.17467605,9.951749193,0.003665191,-0.042760567,-0.010995574,1756822658,-0.005042556
1.217946703,-0.215354034,10.00199847,-0.002443461,-0.05253441,-0.036651914,1756822658,-0.016808521
1.244267752,-0.165104759,9.990034355,0.017104227,-0.067195176,-0.015882496,1756822658,-0.007283692
1.258624688,-0.196211453,9.973284597,-0.002443461,-0.046425758,-0.003665191,1756822658,-0.001680852
1.265803155,-0.179461695,9.954142016,0.003665191,-0.059864793,-0.042760567,1756822658,-0.019609942
1.26101751,-0.186640163,9.937392258,-0.017104227,-0.034208453,-0.040317106,1756822658,-0.018489373
1.287338559,-0.177068872,9.970891774,0,-0.02687807,-0.015882496,1756822658,-0.007283692
1.299302672,-0.200997098,9.956534839,0.010995574,-0.020769418,-0.02687807,1756822658,-0.012326249
1.265803155,-0.162711937,9.968498952,0.004886922,-0.017104227,-0.062308254,1756822658,-0.028574486
1.249053397,-0.124426775,9.997212823,0.017104227,-0.030543262,0.029321531,1756822658,0.013446817
1.241874929,-0.124426775,10.02114105,-0.037873645,-0.05009095,-0.017104227,1756822658,-0.007843977
1.270588801,-0.114855485,9.997212823,-0.015882496,-0.008552113,-0.059864793,1756822658,-0.027453918
1.294517027,-0.124426775,9.956534839,0.029321531,-0.039095375,-0.010995574,1756822658,-0.005042556
1.294517027,-0.081355968,9.937392258,-0.006108652,-0.040317106,-0.028099801,1756822658,-0.012886533
1.304088317,-0.043070807,9.949356371,-0.007330383,-0.014660766,-0.058643063,1756822658,-0.026893634
1.296909849,-0.00957129,9.99482,-0.008552113,-0.043982297,-0.087964594,1756822658,-0.040340451
1.263410333,-0.019142581,9.963713306,0.004886922,-0.013439035,-0.120951317,1756822658,-0.05546812
1.258624688,-0.002392823,9.997212823,0.031764992,-0.046425758,-0.114842665,1756822658,-0.0526667
1.222732349,0,10.0163554,0.030543262,-0.036651914,-0.067195176,1756822658,-0.030815622
1.203589768,0.026321049,10.00439129,0.003665191,-0.02565634,-0.10140363,1756822658,-0.046503576
1.179661542,0.043070807,9.987641532,0.02687807,-0.009773844,-0.125838239,1756822658,-0.057709256
1.18684001,0.050249275,9.997212823,0.039095375,-0.030543262,-0.124616509,1756822658,-0.057148972
1.194018477,0.038285162,10.00199847,0.021991149,-0.02443461,-0.162490153,1756822658,-0.074517777
1.253839042,0.016749758,9.968498952,0.002443461,-0.036651914,-0.112399204,1756822658,-0.051546132
1.237089284,0.016749758,9.982855887,0.007330383,-0.017104227,-0.112399204,1756822658,-0.051546132
1.246660575,-0.021535403,10.0163554,0.017104227,-0.013439035,-0.095294977,1756822658,-0.043702155
1.25144622,-0.083748791,10.00678411,0.017104227,-0.007330383,-0.120951317,1756822658,-0.05546812
1.244267752,-0.143569356,10.04028363,0.023212879,-0.02687807,-0.042760567,1756822658,-0.019609942
1.20598259,-0.12921242,10.08335444,0.006108652,-0.019547688,-0.089186325,1756822658,-0.040900735
1.217946703,-0.17467605,10.0905329,-0.023212879,-0.02443461,-0.064751715,1756822658,-0.029695054
1.237089284,-0.217746857,10.07139032,0.009773844,-0.032986723,-0.063529985,1756822658,-0.02913477
1.229910816,-0.236889437,10.04028363,-0.02687807,-0.040317106,-0.07819075,1756822658,-0.035858178
1.239482107,-0.217746857,10.00199847,0.023212879,-0.053756141,-0.058643063,1756822658,-0.026893634
1.237089284,-0.246460728,10.04267645,-0.017104227,-0.056199602,-0.046425758,1756822658,-0.021290793
1.263410333,-0.246460728,10.03549798,-0.003665191,-0.062308254,-0.059864793,1756822658,-0.027453918
1.320838075,-0.241675083,9.982855887,0.013439035,-0.072082098,-0.069638637,1756822658,-0.03193619
1.339980656,-0.23928226,9.961320484,-0.003665191,-0.053756141,-0.056199602,1756822658,-0.025773066
1.344766301,-0.23928226,9.999605645,-0.009773844,-0.059864793,-0.019547688,1756822658,-0.008964545
1.313659607,-0.18424734,10.02592669,0.007330383,-0.042760567,-0.017104227,1756822658,-0.007843977
1.330409366,-0.189032985,10.00439129,0.013439035,-0.023212879,-0.098960169,1756822658,-0.045383007
1.337587833,-0.196211453,10.02592669,-0.019547688,-0.05253441,-0.054977871,1756822658,-0.025212782
1.337587833,-0.215354034,10.03310516,-0.023212879,-0.036651914,-0.097738438,1756822658,-0.044822723
1.397408398,-0.200997098,10.06181903,-0.031764992,-0.046425758,-0.07819075,1756822658,-0.035858178
1.423729447,-0.198604276,10.05224774,-0.008552113,-0.059864793,-0.054977871,1756822658,-0.025212782
1.428515092,-0.148355001,10.04028363,0.003665191,-0.05131268,-0.05131268,1756822658,-0.02353193
1.416550979,-0.153140646,10.02831952,0.02687807,-0.034208453,-0.05009095,1756822658,-0.022971646
1.43569356,-0.098105727,10.00917694,-0.012217305,-0.034208453,-0.10140363,1756822658,-0.046503576
1.409372511,-0.040677984,9.968498952,-0.006108652,-0.017104227,-0.098960169,1756822658,-0.045383007
1.383051463,-0.023928226,9.992427178,-0.023212879,-0.010995574,-0.10140363,1756822658,-0.046503576
1.32562372,0.00957129,9.99482,-0.015882496,-0.02687807,-0.065973446,1756822658,-0.030255338
1.318445253,0.028713871,10.00199847,0.02687807,-0.02687807,-0.028099801,1756822658,-0.012886533
1.308873962,0.035892339,9.954142016,-0.006108652,-0.008552113,-0.112399204,1756822658,-0.051546132
1.328016543,0.026321049,9.927820967,-0.003665191,-0.017104227,-0.07574729,1756822658,-0.034737611
1.335195011,0.043070807,9.908678387,-0.002443461,0.008552113,-0.072082098,1756822658,-0.033056758
1.296909849,0.023928226,9.956534839,0.015882496,-0.004886922,-0.069638637,1756822658,-0.03193619
1.280160091,0.038285162,9.961320484,0.040317106,-0.003665191,-0.106290551,1756822658,-0.048744711
1.263410333,0.028713871,9.968498952,0.007330383,-0.013439035,-0.058643063,1756822658,-0.026893634
1.246660575,-0.019142581,9.946963548,0.019547688,-0.020769418,-0.039095375,1756822658,-0.017929089
1.198804123,-0.06460621,9.946963548,0.015882496,-0.02687807,-0.081855942,1756822658,-0.037539031
1.237089284,-0.090927259,9.932606613,0.007330383,-0.029321531,-0.039095375,1756822658,-0.017929089
1.294517027,-0.066999033,9.958927661,0.054977871,-0.05253441,-0.096516708,1756822658,-0.044262439
1.263410333,-0.102891372,9.978070242,0.017104227,-0.046425758,-0.091629786,1756822658,-0.042021303
1.318445253,-0.141176533,9.997212823,0.036651914,-0.032986723,-0.081855942,1756822658,-0.037539031
1.330409366,-0.165104759,10.04506927,0.006108652,-0.036651914,-0.048869219,1756822658,-0.022411362
1.375872995,-0.220139679,10.0689975,0,-0.072082098,-0.097738438,1756822658,-0.044822723
1.404586866,-0.258424841,10.08574726,-0.012217305,-0.040317106,-0.045204028,1756822658,-0.02073051
1.430907915,-0.232103792,10.04506927,0.013439035,-0.065973446,-0.065973446,1756822658,-0.030255338
1.447657673,-0.227318147,10.04985492,0.019547688,-0.05253441,-0.02443461,1756822658,-0.011205681
1.485942835,-0.18424734,9.987641532,-0.017104227,-0.043982297,-0.054977871,1756822658,-0.025212782
1.488335657,-0.18424734,9.956534839,-0.003665191,-0.020769418,-0.05253441,1756822658,-0.024092214
1.481157189,-0.179461695,9.990034355,-0.02565634,-0.023212879,-0.029321531,1756822658,-0.013446817
1.466800254,-0.165104759,9.997212823,-0.034208453,-0.019547688,-0.05253441,1756822658,-0.024092214
1.473978722,-0.162711937,10.0163554,-0.002443461,-0.023212879,-0.039095375,1756822658,-0.017929089
1.43569356,-0.172283227,10.07139032,0,0,-0.015882496,1756822658,-0.007283692
1.411765334,-0.138783711,10.03549798,-0.031764992,0.008552113,-0.042760567,1756822658,-0.019609942
1.399801221,-0.148355001,10.04028363,-0.007330383,-0.006108652,-0.045204028,1756822658,-0.02073051
1.38065864,-0.150747824,10.0163554,-0.031764992,0.006108652,-0.040317106,1756822658,-0.018489373
1.339980656,-0.105284194,9.970891774,-0.017104227,0.029321531,0.006108652,1756822658,0.00280142
1.320838075,-0.05503492,9.968498952,-0.009773844,0.009773844,-0.048869219,1756822658,-0.022411362
1.318445253,0.002392823,9.946963548,0.015882496,-0.023212879,-0.045204028,1756822658,-0.02073051
1.287338559,0.016749758,9.951749193,0.003665191,-0.009773844,-0.065973446,1756822658,-0.030255338
1.270588801,0.035892339,9.927820967,0.003665191,-0.009773844,-0.058643063,1756822658,-0.026893634
1.246660575,0.047856452,9.93978508,0.017104227,-0.015882496,-0.07574729,1756822658,-0.034737611
1.270588801,0.021535403,9.942177903,0.009773844,-0.010995574,-0.059864793,1756822658,-0.027453918
1.277767268,0,9.937392258,0.020769418,-0.036651914,-0.091629786,1756822658,-0.042021303
1.275374446,-0.038285162,9.915856854,0.020769418,-0.007330383,-0.009773844,1756822658,-0.004482272
1.287338559,-0.057427742,9.93021379,-0.009773844,-0.020769418,-0.059864793,1756822658,-0.027453918
1.265803155,-0.105284194,9.956534839,-0.006108652,-0.013439035,-0.030543262,1756822658,-0.014007101
1.282552914,-0.136390888,10.00199847,0.006108652,0.015882496,-0.032986723,1756822659,-0.015127669
1.239482107,-0.143569356,9.923035322,-0.015882496,-0.003665191,-0.036651914,1756822659,-0.016808521
0.995414202,-0.148355001,9.961320484,0.023212879,-0.05253441,-0.046425758,1756822659,-0.021290793
1.062413234,-0.18424734,10.04028363,0.020769418,-0.07819075,-0.039095375,1756822659,-0.017929089
1.246660575,-0.172283227,10.04506927,0.058643063,-0.069638637,-0.040317106,1756822659,-0.018489373
1.32562372,-0.100498549,10.03071234,-0.009773844,-0.046425758,-0.085521133,1756822659,-0.039219883
1.289731381,0.002392823,9.973284597,-0.029321531,-0.07819075,-0.043982297,1756822659,-0.020170225
1.241874929,-0.112462662,9.966106129,-0.029321531,-0.091629786,-0.029321531,1756822659,-0.013446817
1.229910816,-0.150747824,9.970891774,-0.021991149,-0.124616509,-0.040317106,1756822659,-0.018489373
1.198804123,-0.181854518,9.958927661,-0.006108652,-0.15271631,-0.029321531,1756822659,-0.013446817
1.229910816,-0.193818631,10.03310516,0.018325957,-0.197920337,-0.009773844,1756822659,-0.004482272
1.344766301,-0.189032985,10.09771137,0.006108652,-0.172263997,0,1756822659,0
1.387837108,-0.105284194,10.03549798,0.013439035,-0.17959438,-0.081855942,1756822659,-0.037539031
1.433300737,-0.114855485,9.954142016,-0.006108652,-0.17837265,-0.05253441,1756822659,-0.024092214
1.404586866,-0.133998066,9.951749193,-0.007330383,-0.174707458,-0.07696902,1756822659,-0.035297895
1.438086383,-0.172283227,9.934999435,0.003665191,-0.17837265,-0.073303829,1756822659,-0.033617043
1.557727513,-0.222532502,10.0474621,-0.007330383,-0.174707458,-0.07574729,1756822659,-0.034737611
1.55533469,-0.177068872,10.02353387,0,-0.133168622,-0.020769418,1756822659,-0.009524829
1.605583965,-0.133998066,10.03310516,-0.010995574,-0.116064395,-0.065973446,1756822659,-0.030255338
1.641476304,-0.141176533,10.00678411,-0.032986723,-0.089186325,-0.020769418,1756822659,-0.009524829
1.691725578,-0.117248307,10.03310516,-0.030543262,-0.065973446,-0.046425758,1756822659,-0.021290793
1.677368643,-0.100498549,10.05464057,-0.008552113,-0.05009095,-0.059864793,1756822659,-0.027453918
1.653440417,-0.105284194,10.00917694,-0.008552113,-0.014660766,-0.079412481,1756822659,-0.036418463
1.643869126,-0.126819598,9.99482,-0.039095375,-0.013439035,-0.032986723,1756822659,-0.015127669
1.56490598,-0.124426775,9.954142016,-0.029321531,-0.007330383,-0.065973446,1756822659,-0.030255338
1.557727513,-0.095712904,10.00439129,0.007330383,-0.010995574,-0.02565634,1756822659,-0.011765965
1.469193076,-0.074177501,10.03071234,-0.007330383,-0.010995574,-0.081855942,1756822659,-0.037539031
1.447657673,-0.040677984,10.03071234,-0.013439035,-0.014660766,-0.07574729,1756822659,-0.034737611
1.430907915,-0.050249275,9.997212823,0,-0.010995574,-0.032986723,1756822659,-0.015127669
1.383051463,-0.095712904,9.954142016,0.003665191,-0.023212879,-0.059864793,1756822659,-0.027453918
1.404586866,-0.136390888,9.918249677,0.013439035,-0.02443461,-0.02565634,1756822659,-0.011765965
1.392622753,-0.105284194,9.906285564,0.009773844,-0.007330383,-0.07574729,1756822659,-0.034737611
1.406979689,-0.105284194,9.918249677,-0.006108652,0,-0.020769418,1756822659,-0.009524829
1.411765334,-0.124426775,9.980463065,0.006108652,-0.007330383,-0.05253441,1756822659,-0.024092214
1.450050496,-0.098105727,9.942177903,-0.018325957,-0.007330383,-0.063529985,1756822659,-0.02913477
1.459621786,-0.136390888,9.980463065,0.02565634,-0.034208453,-0.007330383,1756822659,-0.003361704
1.481157189,-0.153140646,9.978070242,0.015882496,-0.030543262,-0.059864793,1756822659,-0.027453918
1.497906948,-0.148355001,10.00678411,-0.015882496,-0.039095375,-0.064751715,1756822659,-0.029695054
1.49072848,-0.17467605,10.0163554,0.023212879,-0.040317106,-0.040317106,1756822659,-0.018489373
1.497906948,-0.208175566,9.975677419,0.010995574,-0.036651914,-0.040317106,1756822659,-0.018489373
1.469193076,-0.260817663,9.982855887,0.014660766,-0.018325957,-0.043982297,1756822659,-0.020170225
1.476371544,-0.258424841,9.992427178,-0.009773844,-0.007330383,-0.067195176,1756822659,-0.030815622
1.473978722,-0.224925324,9.978070242,0.05253441,-0.020769418,-0.083077672,1756822659,-0.038099315
1.476371544,-0.23928226,10.00199847,0.009773844,-0.008552113,-0.007330383,1756822659,-0.003361704
1.466800254,-0.208175566,10.00678411,0.023212879,-0.017104227,-0.072082098,1756822659,-0.033056758
1.493121302,-0.189032985,9.978070242,0.029321531,-0.004886922,-0.046425758,1756822659,-0.021290793
1.507478238,-0.179461695,9.992427178,-0.015882496,-0.047647489,-0.02443461,1756822659,-0.011205681
1.50029977,-0.148355001,9.987641532,0,-0.017104227,-0.048869219,1756822659,-0.022411362
1.519442351,-0.143569356,9.975677419,-0.040317106,-0.023212879,-0.046425758,1756822659,-0.021290793
1.488335657,-0.155533469,9.968498952,-0.036651914,-0.034208453,-0.013439035,1756822659,-0.006163124
1.497906948,-0.136390888,10.02592669,-0.007330383,-0.040317106,-0.02687807,1756822659,-0.012326249
1.526620819,-0.124426775,10.04985492,-0.017104227,-0.028099801,0.018325957,1756822659,0.008404261
1.524227996,-0.145962179,10.05703339,-0.006108652,-0.039095375,-0.017104227,1756822659,-0.007843977
1.526620819,-0.189032985,10.05942621,-0.032986723,-0.034208453,-0.040317106,1756822659,-0.018489373
1.512263883,-0.167497582,10.01396258,-0.015882496,-0.030543262,-0.023212879,1756822659,-0.010645397
1.543370577,-0.200997098,10.00917694,0.002443461,-0.037873645,-0.020769418,1756822659,-0.009524829
1.550549045,-0.150747824,9.982855887,0.030543262,-0.007330383,-0.007330383,1756822659,-0.003361704
1.507478238,-0.150747824,10.00917694,0.002443461,-0.020769418,-0.007330383,1756822659,-0.003361704
1.560120335,-0.145962179,10.01156976,-0.023212879,-0.010995574,-0.020769418,1756822659,-0.009524829
1.548156222,-0.131605243,9.944570726,0.020769418,-0.013439035,-0.014660766,1756822659,-0.006723409
1.50029977,-0.114855485,9.925428145,-0.023212879,-0.00122173,-0.02687807,1756822659,-0.012326249
1.481157189,-0.117248307,9.958927661,-0.009773844,0.006108652,-0.013439035,1756822659,-0.006163124
1.450050496,-0.074177501,9.997212823,0.02565634,-0.004886922,-0.053756141,1756822659,-0.024652498
1.457228963,-0.114855485,10.01156976,-0.006108652,0.012217305,-0.045204028,1756822659,-0.02073051
1.390229931,-0.11964113,9.990034355,0,-0.013439035,-0.065973446,1756822659,-0.030255338
1.428515092,-0.117248307,9.990034355,-0.009773844,-0.048869219,-0.064751715,1756822659,-0.029695054
1.404586866,-0.105284194,9.966106129,-0.019547688,-0.034208453,-0.007330383,1756822659,-0.003361704
1.423729447,-0.141176533,9.980463065,-0.008552113,-0.013439035,-0.02443461,1756822659,-0.011205681
1.402194044,-0.126819598,9.973284597,-0.009773844,-0.02687807,-0.085521133,1756822659,-0.039219883
1.406979689,-0.136390888,9.958927661,0.010995574,-0.014660766,-0.081855942,1756822659,-0.037539031
1.43569356,-0.112462662,9.975677419,0.00122173,-0.028099801,-0.05009095,1756822659,-0.022971646
1.421336624,-0.126819598,9.970891774,0.017104227,-0.015882496,-0.10384709,1756822659,-0.047624143
1.411765334,-0.141176533,9.99482,0.019547688,-0.020769418,-0.029321531,1756822659,-0.013446817
1.430907915,-0.11964113,9.944570726,-0.023212879,0,-0.053756141,1756822659,-0.024652498
1.42612227,-0.131605243,9.949356371,0.004886922,-0.042760567,-0.05009095,1756822659,-0.022971646
1.418943802,-0.136390888,9.93978508,0.023212879,-0.023212879,-0.036651914,1756822659,-0.016808521
1.450050496,-0.167497582,9.951749193,0.008552113,-0.02687807,-0.040317106,1756822659,-0.018489373
1.43569356,-0.179461695,9.999605645,-0.013439035,-0.020769418,-0.05253441,1756822659,-0.024092214
1.430907915,-0.169890405,10.00678411,0.02687807,-0.030543262,-0.085521133,1756822659,-0.039219883
1.430907915,-0.179461695,9.990034355,-0.006108652,-0.039095375,-0.043982297,1756822659,-0.020170225
1.450050496,-0.222532502,9.963713306,0.019547688,-0.02687807,-0.07819075,1756822659,-0.035858178
1.43569356,-0.260817663,9.942177903,0.009773844,-0.065973446,-0.046425758,1756822659,-0.021290793
1.488335657,-0.267996131,9.992427178,-0.008552113,-0.067195176,0.00122173,1756822659,0.000560284
1.493121302,-0.272781776,10.01396258,0,-0.05009095,-0.042760567,1756822659,-0.019609942
1.485942835,-0.272781776,9.98524871,-0.009773844,-0.056199602,-0.013439035,1756822659,-0.006163124
1.50029977,-0.287138712,9.973284597,0,-0.043982297,-0.056199602,1756822659,-0.025773066
1.519442351,-0.275174599,9.99482,0.009773844,-0.047647489,-0.02687807,1756822659,-0.012326249
1.509871061,-0.244067905,10.02114105,0,-0.030543262,-0.040317106,1756822659,-0.018489373
1.507478238,-0.22971097,10.00917694,-0.009773844,-0.023212879,-0.043982297,1756822659,-0.020170225
1.509871061,-0.198604276,9.966106129,0.003665191,-0.019547688,-0.065973446,1756822659,-0.030255338
1.512263883,-0.205782744,9.970891774,-0.02687807,-0.056199602,-0.056199602,1756822659,-0.025773066
1.521835174,-0.196211453,9.992427178,-0.021991149,-0.039095375,-0.030543262,1756822659,-0.014007101
1.536192109,-0.181854518,9.999605645,-0.019547688,-0.05253441,-0.010995574,1756822659,-0.005042556
1.536192109,-0.155533469,10.01874823,-0.021991149,-0.036651914,-0.023212879,1756822659,-0.010645397
1.538584932,-0.12921242,10.05464057,-0.013439035,-0.02687807,-0.046425758,1756822659,-0.021290793
1.533799287,-0.086141614,10.04506927,-0.015882496,-0.02687807,-0.042760567,1756822659,-0.019609942
1.497906948,-0.107677017,10.02353387,0.02565634,-0.046425758,-0.042760567,1756822659,-0.019609942
1.485942835,-0.11964113,10.00439129,-0.009773844,-0.017104227,-0.042760567,1756822659,-0.019609942
1.478764367,-0.133998066,9.970891774,0,-0.036651914,-0.030543262,1756822659,-0.014007101
1.49072848,-0.114855485,9.966106129,0.012217305,-0.039095375,-0.053756141,1756822659,-0.024652498
1.481157189,-0.107677017,9.958927661,-0.002443461,-0.02443461,-0.02443461,1756822659,-0.011205681
1.495514125,-0.066999033,9.990034355,0.02687807,-0.02443461,-0.056199602,1756822659,-0.025773066
1.454836141,-0.06460621,9.992427178,0.02565634,-0.040317106,-0.089186325,1756822659,-0.040900735
1.418943802,-0.05503492,9.958927661,0.02687807,-0.039095375,-0.059864793,1756822659,-0.027453918
1.418943802,-0.088534436,9.987641532,-0.007330383,-0.059864793,-0.046425758,1756822659,-0.021290793
1.430907915,-0.069391855,9.970891774,0.030543262,-0.072082098,-0.053756141,1756822659,-0.024652498
1.450050496,-0.076570323,10.03310516,0.019547688,-0.069638637,-0.072082098,1756822659,-0.033056758
1.509871061,-0.076570323,10.0163554,0.019547688,-0.063529985,-0.090408055,1756822659,-0.041461019
1.502692593,-0.057427742,9.999605645,0.009773844,-0.07819075,-0.065973446,1756822659,-0.030255338
1.548156222,-0.090927259,9.997212823,0.006108652,-0.10262536,-0.07574729,1756822659,-0.034737611
1.533799287,-0.11006984,9.980463065,0.006108652,-0.112399204,-0.05009095,1756822659,-0.022971646
1.540977754,-0.148355001,9.997212823,-0.034208453,-0.10384709,-0.089186325,1756822659,-0.040900735
1.533799287,-0.145962179,9.997212823,0.007330383,-0.116064395,-0.072082098,1756822659,-0.033056758
1.617548078,-0.186640163,9.98524871,-0.002443461,-0.141720735,-0.073303829,1756822659,-0.033617043
1.651047594,-0.210568389,9.973284597,-0.012217305,-0.134390352,-0.091629786,1756822659,-0.042021303
1.636690658,-0.205782744,9.93021379,-0.040317106,-0.105068821,-0.085521133,1756822659,-0.039219883
1.641476304,-0.200997098,9.932606613,-0.035430184,-0.114842665,-0.114842665,1756822659,-0.0526667
1.670190175,-0.203389921,9.896714274,-0.007330383,-0.117286126,-0.125838239,1756822659,-0.057709256
1.663011707,-0.215354034,9.923035322,-0.042760567,-0.116064395,-0.045204028,1756822660,-0.02073051
1.655833239,-0.205782744,9.915856854,-0.02565634,-0.144164196,-0.048869219,1756822660,-0.022411362
1.672582997,-0.198604276,9.946963548,-0.048869219,-0.119729587,-0.091629786,1756822660,-0.042021303
1.655833239,-0.215354034,9.946963548,-0.020769418,-0.116064395,-0.069638637,1756822660,-0.03193619
1.708475336,-0.205782744,9.93978508,-0.023212879,-0.138055544,-0.068416907,1756822660,-0.031375906
1.73001074,-0.193818631,9.973284597,-0.054977871,-0.12950343,-0.069638637,1756822660,-0.03193619
1.753938966,-0.253639196,10.0163554,-0.065973446,-0.096516708,-0.091629786,1756822660,-0.042021303
1.777867192,-0.251246373,10.0163554,-0.05009095,-0.10140363,-0.030543262,1756822660,-0.014007101
1.732403562,-0.282353067,10.07856879,-0.017104227,-0.114842665,-0.085521133,1756822660,-0.039219883
1.801795418,-0.277567422,10.08814008,-0.054977871,-0.10262536,-0.095294977,1756822660,-0.043702155
1.820937999,-0.22971097,10.07378315,0.003665191,-0.081855942,-0.058643063,1756822660,-0.026893634
1.816152353,-0.234496615,9.968498952,-0.042760567,-0.090408055,-0.094073247,1756822660,-0.043141871
1.808973886,-0.220139679,9.966106129,-0.058643063,-0.073303829,-0.085521133,1756822660,-0.039219883
1.80418824,-0.162711937,9.949356371,0.015882496,-0.065973446,-0.124616509,1756822660,-0.057148972
1.775474369,-0.124426775,9.937392258,0.013439035,-0.087964594,-0.069638637,1756822660,-0.03193619
1.744367675,0.002392823,9.942177903,-0.036651914,-0.070860368,-0.072082098,1756822660,-0.033056758
1.703689691,-0.014356936,9.899107096,-0.029321531,-0.042760567,-0.111177473,1756822660,-0.050985847
1.718046627,-0.023928226,9.894321451,0.007330383,-0.047647489,-0.098960169,1756822660,-0.045383007
1.732403562,-0.040677984,9.87517887,-0.035430184,-0.046425758,-0.07574729,1756822660,-0.034737611
1.720439449,-0.062213388,9.906285564,-0.046425758,-0.020769418,-0.095294977,1756822660,-0.043702155
1.706082514,-0.076570323,9.913464032,0.013439035,-0.043982297,-0.111177473,1756822660,-0.050985847
1.741974853,-0.076570323,9.93021379,-0.012217305,-0.028099801,-0.072082098,1756822660,-0.033056758
1.744367675,-0.126819598,9.987641532,-0.006108652,-0.036651914,-0.163711884,1756822660,-0.075078061
1.78504566,-0.150747824,9.98524871,0.006108652,-0.017104227,-0.069638637,1756822660,-0.03193619
1.756331788,-0.181854518,10.03310516,0.002443461,-0.034208453,-0.1282817,1756822660,-0.058829824
1.773081547,-0.200997098,10.0163554,-0.006108652,-0.065973446,-0.074525559,1756822660,-0.034177326
1.780260014,-0.251246373,9.954142016,-0.013439035,-0.05009095,-0.10140363,1756822660,-0.046503576
1.763510256,-0.270388954,9.918249677,-0.065973446,-0.062308254,-0.10262536,1756822660,-0.047063859
1.79461695,-0.327816696,9.877571693,-0.041538836,-0.056199602,-0.112399204,1756822660,-0.051546132
1.799402595,-0.344566454,9.882357338,-0.010995574,-0.081855942,-0.07574729,1756822660,-0.034737611
1.816152353,-0.401994197,9.903892741,-0.017104227,-0.063529985,-0.079412481,1756822660,-0.036418463
1.835294934,-0.390030084,9.86560758,-0.015882496,-0.065973446,-0.048869219,1756822660,-0.022411362
1.808973886,-0.337387987,9.858429112,-0.039095375,-0.062308254,-0.05253441,1756822660,-0.024092214
1.818545176,-0.344566454,9.829715241,-0.015882496,-0.032986723,-0.087964594,1756822660,-0.040340451
1.792224127,-0.428315245,9.724431046,-0.018325957,-0.036651914,-0.068416907,1756822660,-0.031375906
1.749153321,-0.433100891,9.836893709,-0.081855942,0.004886922,-0.059864793,1756822660,-0.027453918
1.85922316,-0.540777908,9.93021379,0.002443461,0.015882496,-0.030543262,1756822660,-0.014007101
1.777867192,-0.418743955,10.04506927,0.00122173,0.061086524,-0.030543262,1756822660,-0.014007101
1.866401628,-0.401994197,10.12881807,-0.008552113,0.056199602,-0.046425758,1756822660,-0.021290793
1.782652837,-0.492921456,10.24606637,0.007330383,0.05131268,-0.062308254,1756822660,-0.028574486
1.84965187,-0.457029117,10.22692379,-0.021991149,0.057421332,-0.081855942,1756822660,-0.037539031
1.643869126,-0.150747824,10.15513911,0.003665191,0.084299403,-0.034208453,1756822660,-0.015687953
2.000399694,-0.519242504,10.18385299,-0.002443461,0.07574729,-0.074525559,1756822660,-0.034177326
1.761117434,-0.397208552,10.00199847,-0.003665191,0.047647489,-0.02443461,1756822660,-0.011205681
1.643869126,-0.019142581,10.04985492,0.021991149,0.045204028,-0.098960169,1756822660,-0.045383007
1.727617917,0.023928226,10.10967548,-0.032986723,0.032986723,-0.083077672,1756822660,-0.038099315
1.670190175,0.296710002,10.17906734,-0.013439035,-0.010995574,-0.020769418,1756822660,-0.009524829
1.756331788,0.165104759,10.26281613,-0.021991149,0.002443461,-0.089186325,1756822660,-0.040900735
1.660618884,0.224925324,10.18146016,-0.042760567,-0.036651914,-0.07819075,1756822660,-0.035858178
1.6199409,0.179461695,10.03789081,-0.064751715,-0.019547688,-0.056199602,1756822660,-0.025773066
1.6199409,0.138783711,10.04985492,-0.045204028,-0.015882496,-0.117286126,1756822660,-0.053787268
1.651047594,0.131605243,10.13838936,-0.035430184,-0.02687807,-0.072082098,1756822660,-0.033056758
1.686939933,0.210568389,10.24128073,-0.07574729,-0.020769418,-0.157603231,1756822660,-0.072276641
1.605583965,0.325423874,10.3657075,-0.045204028,0.039095375,-0.094073247,1756822660,-0.043141871
1.686939933,0.22971097,10.49970557,-0.039095375,0.053756141,-0.138055544,1756822660,-0.063312097
1.655833239,0.241675083,10.52841944,-0.048869219,0.02565634,-0.212581103,1756822660,-0.097489423
1.517049528,0.270388954,10.40638549,-0.062308254,0.013439035,-0.30665435,1756822660,-0.140631294
1.550549045,-0.131605243,10.36331468,-0.02565634,0.070860368,-0.284663184,1756822660,-0.130546174
1.507478238,-0.035892339,10.18146016,-0.032986723,0.064751715,-0.108734012,1756822660,-0.049865279
1.5457634,-0.090927259,9.894321451,-0.002443461,0.037873645,-0.195476876,1756822660,-0.089645446
1.519442351,0.246460728,9.832108063,0,-0.053756141,-0.290771853,1756822660,-0.133347601
1.442872028,0.241675083,9.923035322,-0.006108652,-0.07574729,-0.219911486,1756822660,-0.100851127
1.450050496,0.339780809,10.32742234,-0.012217305,-0.032986723,-0.353080108,1756822660,-0.161922088
1.584048561,0.339780809,10.68156009,-0.056199602,0.012217305,-0.287106679,1756822660,-0.131666757
1.734796385,0.35892339,10.88016436,-0.079412481,0.039095375,-0.41783184,1756822660,-0.19161715
1.713260982,0.36849468,10.8203438,-0.124616509,0.072082098,-0.339641055,1756822660,-0.155758955
1.737189208,0.373280326,10.58824001,-0.173485728,0.054977871,-0.431270841,1756822660,-0.197780258
1.718046627,0.387637261,10.48774146,-0.158824962,0.02565634,-0.41783184,1756822660,-0.19161715
1.653440417,0.387637261,10.33220799,-0.120951317,-0.032986723,-0.456927198,1756822660,-0.209546231
1.696511223,0.181854518,10.31067258,-0.168598806,-0.036651914,-0.427605667,1756822660,-0.196099414
1.576870093,0.421136778,10.27956589,-0.161268423,-0.046425758,-0.466701042,1756822660,-0.214028503
1.576870093,0.437886536,10.25803049,-0.125838239,-0.07574729,-0.51190507,1756822660,-0.234759013
1.5457634,0.457029117,10.0474621,-0.092851516,-0.073303829,-0.571769828,1756822660,-0.262212915
1.598405497,0.509671214,9.70050282,-0.120951317,-0.118507856,-0.548556984,1756822660,-0.251567534
1.653440417,0.492921456,9.466006206,-0.112399204,-0.141720735,-0.599869646,1756822660,-0.275099455
1.351944769,0.914058233,9.174081848,-0.151494579,-0.139277274,-0.596204472,1756822660,-0.273418611
1.272981623,1.002592669,8.695517328,-0.177150919,-0.211359372,-0.620639099,1756822660,-0.2846243
1.246660575,1.069591702,8.334201116,-0.180816111,-0.20402899,-0.558330828,1756822660,-0.256049806
1.220339526,1.007378315,8.19063176,-0.172263997,-0.194255146,-0.596204472,1756822660,-0.273418611
1.26101751,0.899701298,8.01595571,-0.157603231,-0.157603231,-0.569326385,1756822660,-0.261092355
1.347159124,0.882951539,7.965706435,-0.118507856,-0.174707458,-0.540004888,1756822660,-0.247645554
1.409372511,0.859023313,8.372486277,-0.122173048,-0.12950343,-0.540004888,1756822660,-0.247645554
1.442872028,0.775274522,8.934799588,-0.106290551,-0.105068821,-0.453261989,1756822660,-0.207865371
1.430907915,0.514456859,9.174081848,-0.085521133,-0.07574729,-0.375071256,1756822660,-0.1720072
1.375872995,0.390030084,9.121439751,-0.081855942,-0.095294977,-0.30054568,1756822660,-0.137829866
1.263410333,0.086141614,9.138189509,-0.083077672,-0.145385927,-0.232128791,1756822660,-0.106453968
1.201196945,-0.222532502,9.217152655,-0.031764992,-0.186924763,-0.202807259,1756822660,-0.093007151
1.158126138,-0.428315245,9.312865559,-0.002443461,-0.263893783,-0.167377075,1756822660,-0.076758913
1.174875897,-0.655633392,9.50668419,0.023212879,-0.320093385,-0.138055544,1756822660,-0.063312097
1.284945736,-0.789631458,9.70050282,0.02565634,-0.395840674,-0.065973446,1756822660,-0.030255338
1.385444285,-0.887737185,9.791430079,0.046425758,-0.43004911,-0.193033415,1756822660,-0.088524878
1.572084448,-0.899701298,9.901499919,0.057421332,-0.505796417,-0.063529985,1756822660,-0.02913477
1.890329854,-0.916451056,10.18624581,-0.039095375,-0.629191178,-0.020769418,1756822660,-0.009524829
2.069791549,-0.942772104,10.439885,0.05253441,-0.70005158,-0.073303829,1756822660,-0.033617043
2.026720742,-0.928415169,10.62652517,0.072082098,-0.730594842,0.10384709,1756822660,0.047624143
2.067398726,-0.713061135,10.65763186,0.149051118,-0.664621414,-0.05253441,1756822660,-0.024092214
2.155933163,-0.490528633,10.77248735,0.172263997,-0.572991628,0.047647489,1756822660,0.021851078
2.237289131,-0.24885355,11.01416243,0.267558974,-0.504574687,-0.081855942,1756822660,-0.037539031
2.268395825,0.052642097,10.91844952,0.332310707,-0.43493605,-0.05253441,1756822660,-0.024092214
2.287538406,0.363709035,10.77727299,0.438601224,-0.41783184,-0.145385927,1756822660,-0.066673801
2.344966148,0.629312344,10.77488017,0.478918364,-0.448375102,-0.210137642,1756822660,-0.096368855
2.368894374,0.930807991,10.84905767,0.636521596,-0.460592372,-0.218689755,1756822660,-0.100290843
2.443071875,1.30648114,10.54277638,0.657290996,-0.49357913,-0.171042267,1756822660,-0.078439766
2.627319215,1.603191142,9.982855887,0.731816555,-0.557109097,-0.186924763,1756822660,-0.085723458
2.868994297,1.787438482,9.523433948,0.817337724,-0.643851944,-0.200363798,1756822660,-0.091886583
3.148954542,2.132004937,9.494720077,0.857654777,-0.702495024,-0.160046692,1756822660,-0.073397209
3.476771238,2.514856553,9.655039191,1.02503187,-0.763581548,-0.136833813,1756822660,-0.062751812
3.945764467,2.962314379,9.391828705,1.02503187,-0.748920782,-0.131946891,1756822660,-0.060510676
4.218546244,3.287738252,9.45164927,1.082453202,-0.71715579,-0.108734012,1756822660,-0.049865279
4.498506488,3.634697529,9.777073144,0.973719207,-0.720820964,-0.105068821,1756822660,-0.048184427
4.706682054,3.890729548,10.07617597,0.932180353,-0.631634639,-0.056199602,1756822660,-0.025773066
4.934000201,3.996013742,10.30349412,0.799011714,-0.530231009,-0.034208453,1756822660,-0.015687953
5.221138913,4.036691726,10.45902758,0.656069266,-0.423940493,0.030543262,1756822660,0.014007101
5.357529801,4.024727613,10.53320509,0.489913921,-0.322536846,0.096516708,1756822660,0.044262439
5.25463843,4.146761566,10.35374339,0.277332818,-0.17837265,0.182037841,1756822660,0.083482322
4.957928427,4.378865358,10.13360371,0.081855942,-0.00122173,0.245567826,1756822660,0.112617092
4.637290199,4.53679165,9.853643467,-0.157603231,0.241902634,0.215024564,1756822660,0.098609991
4.292723744,4.520041891,9.432506689,-0.333532438,0.519235452,0.250454748,1756822660,0.114858228
3.864408499,4.421936165,8.941978056,-0.537561392,0.734260016,0.207694181,1756822660,0.095248287
3.577269787,4.287938099,8.772087652,-0.652404092,0.868650369,0.194255146,1756822660,0.089085162
3.203989461,4.163511324,9.006584266,-0.697608119,0.922406475,0.293215297,1756822661,0.134468162
2.840280426,4.130011808,9.284151688,-0.762359817,0.923628205,0.218689755,1756822661,0.100290843
2.481357036,4.060619952,9.353543543,-0.828333246,0.856433064,0.259006861,1756822661,0.118780217
2.199003969,3.806980757,9.126225396,-0.863763482,0.722042694,0.206472451,1756822661,0.094688003
2.007578161,3.548555916,8.592625957,-0.913854414,0.588874125,0.216246294,1756822661,0.099170275
1.921436548,2.986242605,8.181060469,-0.893084943,0.426383936,0.158824962,1756822661,0.072836925
1.947757596,2.294716873,7.953742322,-0.906523996,0.285884914,0.080634211,1756822661,0.036978746
2.055434613,1.440479205,7.996813129,-0.893084943,0.169820536,-0.008552113,1756822661,-0.003921988
2.194218324,0.753739119,8.025527,-0.827111515,0.12705997,-0.072082098,1756822661,-0.033056758
2.364108729,0.088534436,8.315058535,-0.791681366,0.15271631,-0.147829388,1756822661,-0.067794369
2.51246373,-0.47856452,8.793623055,-0.697608119,0.161268423,-0.271224166,1756822661,-0.124383057
2.682354135,-0.875773072,9.296115801,-0.662177901,0.208915911,-0.355523586,1756822661,-0.163042664
2.758924458,-0.988235734,9.664610481,-0.58398715,0.261450322,-0.443488163,1756822661,-0.203383107
2.849851717,-0.890130007,9.812965483,-0.54611354,0.298102236,-0.5131268,1756822661,-0.235319297
2.876172765,-0.830309442,9.817751128,-0.559552576,0.307876063,-0.505796417,1756822661,-0.231957593
2.830709136,-0.715453957,9.714859756,-0.527787566,0.301767445,-0.542448332,1756822661,-0.248766114
2.773281393,-0.803988394,9.657432014,-0.485027017,0.324980324,-0.489913921,1756822661,-0.2246739
2.667997199,-0.863808959,9.473184673,-0.453261989,0.278554549,-0.415388345,1756822661,-0.190496566
2.591426876,-0.844666378,9.365507656,-0.43493605,0.268780705,-0.333532438,1756822661,-0.152957551
2.560320182,-0.729810893,9.446863625,-0.392175465,0.266337244,-0.320093385,1756822661,-0.146794419
2.63210486,-0.753739119,9.631110965,-0.348193203,0.262672052,-0.288328392,1756822661,-0.132227033
2.648854618,-0.899701298,9.937392258,-0.270002435,0.334754151,-0.245567826,1756822661,-0.112617092
2.529213488,-1.14137638,10.10010419,-0.081855942,0.498466017,-0.284663184,1756822661,-0.130546174
2.20857526,-1.31605243,9.851250644,-0.069638637,0.529009279,-0.25534167,1756822661,-0.117099365
1.91425808,-1.344766301,9.588040158,-0.003665191,0.619417386,-0.301767445,1756822661,-0.138390166
1.61036961,-1.395015576,9.652646368,0.085521133,0.702495024,-0.245567826,1756822661,-0.112617092
1.395015576,-1.363908882,9.980463065,0.155159771,0.790459636,-0.278554549,1756822661,-0.127744761
1.127019445,-1.256231865,10.32742234,0.22968533,0.8906415,-0.23090706,1756822661,-0.105893684
0.880558717,-1.06719888,10.75334476,0.370184317,0.927293449,-0.265115513,1756822661,-0.121581637
0.732203716,-0.899701298,11.15294614,0.368962586,0.908967509,-0.316428176,1756822661,-0.145113558
0.526420972,-0.82791662,11.3922284,0.431270841,0.873537273,-0.326202055,1756822661,-0.149595847
0.256032018,-0.832702265,11.24865904,0.520457183,0.824668072,-0.316428176,1756822661,-0.145113558
0.023928226,-0.832702265,10.82273662,0.632856352,0.764803278,-0.345749707,1756822661,-0.158560375
-0.212961211,-0.813559684,10.30588694,0.752585956,0.669508319,-0.316428176,1756822661,-0.145113558
-0.430708068,-0.614955408,9.858429112,0.874759004,0.538783158,-0.278554549,1756822661,-0.127744761
-0.622133876,-0.172283227,9.769894676,0.917519588,0.38362337,-0.227241869,1756822661,-0.104212832
-0.748953474,0.354137745,10.01396258,0.908967509,0.295658793,-0.122173048,1756822661,-0.056028404
-0.887737185,0.763310409,10.1647104,0.877202447,0.212581103,-0.059864793,1756822661,-0.027453918
-1.040877831,1.189232832,9.992427178,0.85276789,0.196698607,0.012217305,1756822661,0.005602841
-1.215553881,1.6199409,9.705288466,0.805120401,0.175929189,0.157603231,1756822661,0.072276641
-1.258624688,2.100898243,9.707681288,0.735481729,0.22968533,0.254119939,1756822661,0.11653908
-1.409372511,2.572284295,10.0163554,0.724486138,0.223576677,0.344527994,1756822661,0.158000099
-1.617548078,3.034099057,10.41117113,0.67928211,0.238237443,0.390953752,1756822661,0.179290893
-2.005185339,3.632304707,10.48295581,0.596204472,0.324980324,0.459370659,1756822661,0.210666799
-2.455035988,4.400400761,10.42313525,0.403171057,0.360410491,0.485027017,1756822661,0.222432772
-2.840280426,5.087140848,10.73659501,0.227241869,0.38362337,0.41050144,1756822661,0.188255437
-2.938386153,5.50349198,11.00219831,0.014660766,0.241902634,0.364075699,1756822661,0.166964652
-2.852244539,5.749952708,11.22712364,-0.206472451,-0.019547688,0.312763002,1756822661,0.143432714
-2.467000101,5.867201015,11.15533896,-0.442266432,-0.483805251,0.331088942,1756822661,0.151836967
-1.840080579,5.721238837,10.33699363,-0.638965057,-0.933402084,0.448375102,1756822661,0.205624251
-0.796809926,5.233103026,8.810372813,-0.788016192,-1.524719652,0.667064858,1756822661,0.305915094
-0.313459761,4.934000201,8.178667647,-0.932180353,-1.794722105,0.729373112,1756822661,0.33448958
0.564706134,4.445864391,7.707281595,-0.96761052,-2.109928515,0.878424247,1756822661,0.402844241
1.26101751,3.639483175,7.769494982,-1.042136079,-2.23821032,0.940732502,1756822661,0.431418727
1.890329854,2.500499617,8.355736519,-0.971275764,-2.277305538,0.897971918,1756822661,0.411808778
2.419143649,1.466800254,8.901300072,-0.869872099,-2.222327771,0.777020583,1756822661,0.35634065
3.017349299,0.571884601,9.2219383,-0.846659185,-2.014633556,0.296880506,1756822661,0.136149022
3.682553981,0.047856452,9.346365076,-0.784350948,-1.781283,0.168598806,1756822661,0.077319198
4.42672181,-0.282353067,9.379864592,-0.720820964,-1.508837086,-0.112399204,1756822661,-0.051546132
4.919643266,-0.430708068,9.334400963,-0.714712346,-1.197295832,-0.346971438,1756822661,-0.159120659
5.338387221,-0.655633392,9.499505722,-0.599869646,-0.900415361,-0.345749707,1756822661,-0.158560375
5.539384319,-0.885344362,9.741180805,-0.474031425,-0.533896218,-0.461814103,1756822661,-0.211787359
5.716453191,-1.294517027,10.15513911,-0.309097793,-0.164933614,-0.525344105,1756822661,-0.240922137
5.735595772,-1.61036961,10.4709917,-0.164933614,0.108734012,-0.630412908,1756822661,-0.289106557
5.527420206,-1.799402595,10.68873855,-0.092851516,0.348193203,-0.635299883,1756822661,-0.291347717
5.166103993,-2.108076711,10.78205864,0.009773844,0.548556984,-0.73670346,1756822661,-0.337851268
4.816751894,-2.380858487,10.84427202,0.036651914,0.709825372,-0.800233427,1756822661,-0.36698603
4.505684956,-2.514856553,11.08833993,0.062308254,0.847880986,-0.841772298,1756822661,-0.386035704
4.302295035,-2.586641231,11.17687436,0.057421332,0.866206925,-0.838107107,1756822661,-0.384354852
3.862015676,-2.227717841,11.37308582,-0.006108652,0.75747293,-0.83322022,1756822661,-0.382113731
4.048655839,-2.876172765,10.5451692,0.207694181,0.703716754,-0.769690165,1756822661,-0.352978929
3.527020512,-2.813959378,10.01874823,0.114842665,0.535117949,-0.753807686,1756822661,-0.345695245
3.1657043,-2.916850749,9.568897577,0.053756141,0.210137642,-0.580321976,1756822661,-0.266134919
3.005385186,-3.117847848,9.315258382,0.020769418,-0.161268423,-0.65973444,1756822661,-0.302553374
2.98145696,-3.158525832,9.025726847,0.131946891,-0.486248747,-0.632856352,1756822661,-0.290227117
3.053241638,-2.876172765,8.819944104,0.180816111,-0.773355409,-0.532674488,1756822661,-0.244283842
3.318844946,-2.356930261,8.824729749,0.244346095,-0.96761052,-0.51190507,1756822661,-0.234759013
3.716053498,-1.641476304,8.91804983,0.232128791,-1.150870144,-0.474031425,1756822661,-0.217390208
4.149154388,-0.904486943,8.812765636,0.239459173,-1.298699566,-0.30054568,1756822661,-0.137829866
4.654039957,-0.162711937,8.628518296,0.167377075,-1.418429031,-0.208915911,1756822661,-0.095808571
5.338387221,0.313459761,8.528019746,0.263893783,-1.459967954,0.003665191,1756822661,0.001680852
5.845665612,0.873380249,8.444270955,0.194255146,-1.403768317,0.10384709,1756822661,0.047624143
6.204589002,1.282552914,8.164310711,0.207694181,-1.310916819,0.215024564,1756822661,0.098609991
6.226124405,1.49072848,7.78624474,0.158824962,-1.174082935,0.375071256,1756822661,0.1720072
6.21176747,1.80418824,7.563712239,0.056199602,-0.874759004,0.419053553,1756822661,0.192177426
6.027520129,1.990828403,7.135396993,-0.021991149,-0.503352956,0.438601224,1756822661,0.201141963
5.793023515,2.242074776,6.623332957,-0.081855942,-0.07574729,0.474031425,1756822661,0.217390208
5.417350366,2.713460828,6.271588035,-0.105068821,0.337197611,0.465479312,1756822661,0.21346822
5.010570524,2.928814862,6.266802389,-0.085521133,0.665843145,0.423940493,1756822661,0.19441857
4.570291166,2.732603409,6.977470702,-0.112399204,0.965167059,0.439822989,1756822661,0.201702262
4.146761566,2.021935097,8.075776275,-0.138055544,1.264490991,0.491135634,1756822661,0.225234176
3.436093254,1.66540453,9.032905315,-0.182037841,1.524719652,0.516792009,1756822661,0.237000157
3.043670347,1.471585899,10.143175,-0.138055544,1.678657675,0.536339679,1756822661,0.245964694
2.538784779,1.725225095,11.60997526,-0.15271631,1.733635581,0.588874125,1756822661,0.270056924
1.933400661,2.261217357,13.15813148,-0.221133216,1.772730921,0.585208881,1756822661,0.268376047
1.083948638,2.569891472,13.49073382,-0.263893783,1.7898352,0.555887367,1756822661,0.254929238
0.411565487,2.519642198,12.98106261,-0.339641055,1.794722105,0.458148929,1756822661,0.210106515
0.107677017,1.964507355,12.26800147,-0.30665435,1.700648858,0.291993584,1756822661,0.133907886
-0.078963146,1.256231865,11.80379389,-0.048869219,1.271821478,0.1282817,1756822661,0.058829824
-0.346959277,0.564706134,11.97368429,0.009773844,1.20584791,0.10384709,1756822661,0.047624143
-0.624526699,0.172283227,12.08853978,0.155159771,0.939510771,0.028099801,1756822661,0.012886533
-0.689132909,-0.040677984,12.17707421,0.07819075,0.712268885,0.063529985,1756822661,0.02913477
-0.605384118,-0.12921242,12.36371437,0.260228591,0.450818546,0.006108652,1756822661,0.00280142
-0.516849682,-0.122033953,12.34696462,0.142942466,0.213802833,0.047647489,1756822661,0.021851078
-0.380458793,-0.145962179,11.76790155,0.100181899,0.091629786,0.139277274,1756822661,0.06387238
-0.155533469,-0.23928226,10.63609646,0,-0.023212879,0.223576677,1756822661,0.102531979
0.081355968,-0.509671214,9.638289433,-0.062308254,-0.043982297,0.3775147,1756822661,0.173127761
0.3493521,-0.744167829,8.874979023,-0.072082098,-0.065973446,0.412944901,1756822661,0.189376006
0.514456859,-0.899701298,8.812765636,-0.108734012,0.007330383,0.469144485,1756822661,0.215149063
0.552742021,-1.014556782,9.159724913,-0.07574729,0.118507856,0.497244304,1756822661,0.228035604
0.550349198,-0.973878798,9.705288466,-0.046425758,0.344527994,0.520457183,1756822661,0.238681001
0.241675083,-0.775274522,10.03789081,-0.140499005,0.596204472,0.551000445,1756822661,0.252688102
-0.033499516,-0.406779842,9.944570726,-0.141720735,0.830776689,0.426383936,1756822661,0.19553913
-0.449850649,-0.179461695,9.253044994,-0.223576677,1.087340107,0.328645498,1756822661,0.150716407
-0.851844846,-0.334995164,7.65703232,-0.106290551,1.260825817,0.304210889,1756822661,0.139510726
-1.253839042,-0.514456859,5.592026416,0.079412481,1.295034253,0.223576677,1756822661,0.102531979
-1.639083481,-0.332602341,3.974478339,0.250454748,1.153313605,0.285884914,1756822661,0.131106457
-1.947757596,-0.052642097,3.603590836,0.296880506,0.988379973,0.119729587,1756822661,0.054907836
-2.112862356,-0.100498549,5.029713105,0.290771853,0.857654777,0.135612083,1756822661,0.062191529
-2.129612114,-0.509671214,7.925028451,0.23090706,0.785572661,0.006108652,1756822661,0.00280142
-2.184647034,-0.878165894,11.89950679,0.22968533,0.834441933,-0.226020138,1756822661,-0.103652547
-2.191825502,-0.904486943,15.37388521,0.238237443,0.877202447,-0.431270841,1756822661,-0.197780258
-2.270788647,-0.497707101,16.46740513,0.211359372,0.745255608,-0.626747734,1756822661,-0.287425712
-2.129612114,-0.023928226,15.67059521,0.039095375,0.438601224,-0.864985195,1756822661,-0.396681109
-1.505085415,0.083748791,14.1344031,-0.05253441,-0.032986723,-0.822224628,1756822661,-0.377071167
-0.631705166,0.071784678,12.73220905,-0.072082098,-0.682947354,-0.816115923,1756822662,-0.374269723
0.332602341,-0.215354034,11.92582784,-0.064751715,-1.314581993,-0.7550294,1756822662,-0.346255521
1.38065864,-0.483350165,11.52383364,0.119729587,-1.857030359,-0.734260016,1756822662,-0.336730708
2.378465664,-0.619741053,11.62911784,0.238237443,-2.311514096,-0.73670346,1756822662,-0.337851268
3.227917687,-0.332602341,11.93061348,0.387288578,-2.607172924,-0.678060379,1756822662,-0.310957626
3.854837209,0.241675083,11.84925752,0.342084533,-2.769663025,-0.607200064,1756822662,-0.278461176
4.338187374,0.90209412,11.22473082,0.180816111,-2.748893572,-0.544891775,1756822662,-0.249886674
4.706682054,1.289731381,10.62173952,-0.023212879,-2.554638339,-0.499687747,1756822662,-0.229156164
4.924428911,1.66540453,9.576076045,-0.279776297,-2.158797787,-0.456927198,1756822662,-0.209546231
5.01535617,2.038684855,7.941778209,-0.419053553,-1.673770788,-0.362853969,1756822662,-0.166404368
4.989035121,2.275574293,6.135197146,-0.537561392,-1.242499929,-0.311541271,1756822662,-0.14287243
4.768895442,2.543570424,4.833501652,-0.618195586,-0.790459636,-0.189368224,1756822662,-0.086844026
4.599005037,2.483749859,4.685146651,-0.67928211,-0.411723171,-0.059864793,1756822662,-0.027453918
4.378865358,2.462214455,4.984249476,-0.554665654,-0.073303829,0.02565634,1756822662,0.011765965
4.108476404,2.438286229,5.137390122,-0.403171057,0.124616509,0.090408055,1756822662,0.041461019
3.759124305,2.189432679,5.213960445,-0.277332818,0.259006861,0.134390352,1756822662,0.061631244
4.584648102,0.815952507,5.690132143,0.164933614,0.498466017,0.030543262,1756822662,0.014007101
3.64426882,1.871187273,5.824130208,0.425162223,0.585208881,0.403171057,1756822662,0.184893733
2.962314379,2.072184372,6.862615217,0.224798408,0.423940493,0.438601224,1756822662,0.201141963
2.548356069,1.505085415,7.793423208,0.197920337,0.233350521,0.60231309,1756822662,0.276220016
1.97886429,0.875773072,7.544569658,0.168598806,0.041538836,0.81367248,1756822662,0.373149163
1.495514125,0.220139679,6.575476505,0.164933614,-0.118507856,0.807563845,1756822662,0.370347751
1.438086383,-0.59820565,6.029912952,0.250454748,-0.221133216,0.885754595,1756822662,0.406205929
1.646261949,-1.404586866,6.599404731,0.368962586,-0.328645498,0.79412481,1756822662,0.364184626
2.103291065,-2.069791549,8.690731683,0.50701813,-0.384845083,0.735481729,1756822662,0.337290984
2.933600508,-2.732603409,12.112468,0.58276542,-0.411723171,0.670730032,1756822662,0.307595938
3.996013742,-3.146561719,15.88594924,0.64018677,-0.470366251,0.587652324,1756822662,0.269496607
5.43888577,-3.369094221,18.24766515,0.514348513,-0.632856352,0.667064858,1756822662,0.305915094
6.187839244,-3.259024381,18.28116466,0.318871654,-0.753807686,0.770911896,1756822662,0.353539213
5.781059402,-2.99102825,17.98924031,0.219911486,-0.638965057,0.797789984,1756822662,0.36586547
4.998606411,-2.68713978,18.06581063,0.006108652,-0.1282817,0.643851944,1756822662,0.295269681
4.429114633,-2.443071875,17.49631885,-0.15393804,0.463035868,0.459370659,1756822662,0.210666799
3.744767369,-2.474178568,16.28794344,-0.310319558,0.96761052,0.283441471,1756822662,0.129985898
3.098705267,-2.45742881,14.94078431,-0.452040276,1.251052008,0.194255146,1756822662,0.089085162
2.330609212,-2.277967115,13.80897922,-0.504574687,1.390329352,0.109955743,1756822662,0.050425564
1.770688724,-1.852044692,12.31825074,-0.522900626,1.350012142,0.122173048,1756822662,0.056028404
1.182054364,-1.198804123,10.35613621,-0.494800843,1.248608564,0.113620934,1756822662,0.052106416
0.691525731,-0.648454925,8.075776275,-0.491135634,1.070235897,0.145385927,1756822662,0.066673801
0.36849468,-0.124426775,6.03709142,-0.526565835,0.908967509,0.213802833,1756822662,0.098049707
0.078963146,0.612562586,4.529613182,-0.526565835,0.758694643,0.215024564,1756822662,0.098609991
-0.11964113,1.06719888,3.613162126,-0.569326385,0.636521596,0.23090706,1756822662,0.105893684
-0.346959277,1.629512191,3.036491879,-0.592539299,0.58398715,0.184481302,1756822662,0.08460289
-0.397208552,1.825723644,2.790031152,-0.597426203,0.581543707,0.184481302,1756822662,0.08460289
-0.512064036,2.112862356,2.414358003,-0.485027017,0.581543707,0.142942466,1756822662,0.065553233
-0.753739119,2.246860421,2.060220259,-0.293215297,0.605978334,0.12950343,1756822662,0.059390108
-0.976271621,2.117648001,1.56490598,-0.065973446,0.626747734,0.087964594,1756822662,0.040340451
-1.14137638,1.820937999,1.246660575,0.240680904,0.646295405,0.069638637,1756822662,0.03193619
-1.134197912,1.756331788,2.067398726,0.554665654,0.6414085,0.096516708,1756822662,0.044262439
-1.229910816,2.330609212,4.955535605,0.883311152,0.643851944,0.109955743,1756822662,0.050425564
-1.579262916,3.242274623,8.492127407,1.067792436,0.762359817,0.028099801,1756822662,0.012886533
-1.813759531,3.826123337,11.66501017,1.038470905,0.966388789,-0.10262536,1756822662,-0.047063859
-2.191825502,3.902693661,14.51486189,0.963945346,1.165530857,-0.222354947,1756822662,-0.101971695
-2.586641231,3.881158257,17.3742849,0.838107107,1.270599748,-0.428827397,1756822662,-0.196659698
-3.1657043,3.467199947,19.75275056,0.67928211,1.260825817,-0.483805251,1756822662,-0.221872472
-4.185046727,2.251646067,19.75035774,0.630412908,1.048244766,-0.675616936,1756822662,-0.309837066
-5.091926493,0.722632425,18.41516273,0.580321976,0.684169084,-0.811229036,1756822662,-0.372028602
-4.651647134,-0.763310409,15.89073489,0.653625822,0.169820536,-0.933402084,1756822662,-0.428057007
-3.41455785,-1.42612227,17.16850216,0.619417386,-0.529009279,-0.952949737,1756822662,-0.437021535
-1.600798319,-2.038684855,19.07797459,0.483805251,-1.306029914,-0.87109383,1756822662,-0.399482521
-0.138783711,-2.797209619,18.9415837,0.267558974,-2.272418634,-0.636521596,1756822662,-0.291907993
1.256231865,-3.550948738,17.16850216,0.07696902,-3.292563529,-0.411723171,1756822662,-0.188815722
2.801995265,-3.811766402,14.90489198,-0.007330383,-3.999945458,-0.20525072,1756822662,-0.094127719
4.019941968,-3.474378415,12.3350005,-0.072082098,-4.630358296,-0.019547688,1756822662,-0.008964545
4.878965281,-2.86181583,10.06181903,-0.130725161,-4.960225944,0.182037841,1756822662,0.083482322
5.347958511,-1.983649935,7.917849983,-0.196698607,-5.01520371,0.321315115,1756822662,0.147354702
5.903093354,-1.189232832,5.970092387,-0.217468025,-4.758640101,0.41050144,1756822662,0.188255437
6.348158358,-0.425922423,4.141975921,-0.211359372,-4.324925939,0.432492606,1756822662,0.198340558
6.573083682,-0.007178468,2.653640263,-0.322536846,-3.707951944,0.478918364,1756822662,0.219631352
6.482156423,0.512064036,0.72741807,-0.43493605,-2.377487525,0.543670062,1756822662,0.249326398
6.321837309,0.485742988,0.540777908,-0.477696634,-2.19300624,0.565661211,1756822662,0.259411511
6.096911985,0.177068872,0.136390888,-0.520457183,-1.35978609,0.646295405,1756822662,0.296390249
6.34097989,-0.555134843,0.007178468,-0.378736465,-0.350636647,0.631634639,1756822662,0.289666841
5.838487144,-0.244067905,-0.114855485,-0.168598806,0.665843145,0.741590434,1756822662,0.340092428
4.835894475,0.212961211,0.241675083,-0.23090706,1.422094327,0.570548115,1756822662,0.261652639
4.211367776,-0.014356936,1.01216396,-0.140499005,2.050063722,0.518013722,1756822662,0.237560433
3.531806158,-0.325423874,1.775474369,0.089186325,2.585181601,0.397062405,1756822662,0.182092313
3.031706234,-0.959521863,2.474178568,0.393397231,2.988352763,0.199142068,1756822662,0.091326299
2.794816797,-1.378265818,3.582055432,0.946841119,3.207042501,0.05009095,1756822662,0.022971646
2.904886636,-1.263410333,5.838487144,1.478293824,3.158173229,-0.150272849,1756822662,-0.068914937
2.725424941,0.267996131,10.25085202,1.759291938,2.886949186,-0.151494579,1756822662,-0.069475221
2.395215423,2.15354034,15.91227029,1.772730921,2.517986582,-0.046425758,1756822662,-0.021290793
2.251646067,3.65384011,18.83869233,1.422094327,1.88513016,-0.069638637,1756822662,-0.03193619
3.163311477,4.127618985,18.7190512,1.121548612,0.976162651,0.100181899,1756822662,0.045943291
4.716253345,3.869194144,18.61855265,0.731816555,-0.125838239,0.35796703,1756822662,0.164163224
5.1349973,3.716053498,18.95354781,0.307876063,-0.819781167,0.426383936,1756822662,0.19553913
4.811966249,2.75174599,20.28395718,-0.17837265,-0.773355409,0.331088942,1756822662,0.151836967
5.259424075,1.313659607,20.11167395,-0.668286588,-0.326202055,0.237015712,1756822662,0.108695104
5.62313311,-0.631705166,18.72383684,-0.962723615,0.114842665,0.123394778,1756822662,0.056588688
5.233103026,-2.797209619,16.98425481,-1.077566315,0.60231309,0.040317106,1756822662,0.018489373
4.752145684,-4.455435681,15.1298173,-1.123992073,1.097113985,0.05253441,1756822662,0.024092214
3.797409466,-5.168496816,13.22034487,-0.993266877,1.521054478,0.086742864,1756822662,0.039780167
2.450250342,-4.965106895,11.22473082,-0.908967509,1.863138977,0.112399204,1756822662,0.051546132
1.304088317,-4.7856452,9.291330156,-0.682947354,2.120924055,0.086742864,1756822662,0.039780167
0.236889437,-3.821337692,7.355536672,-0.444709893,2.228436389,0.008552113,1756822662,0.003921988
-0.504885569,-2.428714939,5.721238837,-0.150272849,2.188119336,-0.009773844,1756822662,-0.004482272
-0.937986459,-1.406979689,4.778466732,0.046425758,1.953547032,-0.150272849,1756822662,-0.068914937
-1.31605243,-0.60777694,4.254438583,0.138055544,1.645670969,-0.206472451,1756822662,-0.094688003
-1.466800254,0,3.646661642,0.085521133,1.309695088,-0.257785131,1756822662,-0.118219933
-1.428515092,0.205782744,2.493321149,0.079412481,0.929736893,-0.268780705,1756822662,-0.123262489
-1.363908882,0.325423874,1.263410333,0.059864793,0.597426203,-0.246789556,1756822662,-0.113177376
-1.347159124,0.437886536,0.179461695,0.122173048,0.278554549,-0.185703032,1756822662,-0.085163174
-1.318445253,0.873380249,-0.514456859,0.175929189,0.057421332,-0.130725161,1756822662,-0.059950392
-1.134197912,1.239482107,-0.332602341,0.208915911,-0.092851516,-0.124616509,1756822662,-0.057148972
-0.746560651,1.588834206,0.973878798,0.17837265,-0.234572251,-0.122173048,1756822662,-0.056028404
-0.308674115,1.981257113,3.519842045,0.118507856,-0.270002435,-0.111177473,1756822662,-0.050985847
0.057427742,2.306680986,5.601597707,0.194255146,-0.207694181,-0.156381501,1756822662,-0.071716357
0.189032985,2.679961312,7.733602643,0.283441471,-0.10140363,-0.17959438,1756822662,-0.082361754
0.267996131,3.019742121,10.54756202,0.472809694,0.123394778,-0.138055544,1756822662,-0.063312097
0.270388954,3.823730515,15.21356609,0.547335271,0.43004911,0.02443461,1756822662,0.011205681
0.062213388,4.783252377,18.01077571,0.607200064,0.739146903,0.112399204,1756822662,0.051546132
-0.392422906,5.386243673,18.60898136,0.629191178,0.952949737,0.084299403,1756822662,0.038659599
-0.729810893,4.259224228,18.76930047,0.566882941,1.066570723,0.062308254,1756822662,0.028574486
-1.797009773,1.78504566,18.86262056,0.691499432,1.067792436,-0.068416907,1756822662,-0.031375906
-2.617747924,-0.516849682,17.7451724,0.955393267,0.992045147,-0.118507856,1756822662,-0.054347552
-2.593819698,-0.622133876,19.48954008,0.976162651,0.614530412,-0.218689755,1756822662,-0.100290843
-3.125026316,-0.811166861,23.17209406,0.913854414,0.403171057,-0.097738438,1756822662,-0.044822723
-2.857030184,-0.483350165,23.1027022,0.818559454,0.041538836,0.019547688,1756822662,0.008964545
-2.562713005,-0.23928226,20.62373799,0.409279727,-0.711047172,0.006108652,1756822662,0.00280142
-1.557727513,-0.53359944,17.11825288,-0.174707458,-1.562593262,-0.045204028,1756822662,-0.02073051
-0.23928226,-1.158126138,14.20379495,-0.635299883,-2.386039743,-0.057421332,1756822662,-0.02633335
0.897308475,-1.813759531,11.70808098,-0.83322022,-3.007900363,-0.05253441,1756822662,-0.024092214
2.151147517,-2.610569457,9.38704306,-1.018923235,-3.506366363,-0.032986723,1756822662,-0.015127669
3.168097122,-2.352144616,7.12343288,-0.968832233,-3.811798982,0.061086524,1756822662,0.028014202
3.907479306,-1.78504566,5.170889639,-0.838107107,-3.947411134,0.201585529,1756822662,0.092446867
4.476971085,-1.036092186,3.440878899,-0.682947354,-3.88510302,0.337197611,1756822662,0.154638395
4.871786814,-0.564706134,2.416750826,-0.527787566,-3.681073995,0.48747046,1756822663,0.223553332
5.15413988,-0.547956375,1.746760498,-0.448375102,-3.288898477,0.559552576,1756822663,0.256610099
5.379065205,-0.59820565,1.26101751,-0.316428176,-2.819753905,0.625526004,1756822663,0.286865429
5.38385085,-0.466600407,0.789631458,-0.233350521,-2.294409957,0.657290996,1756822663,0.301432813
5.192425042,-0.222532502,0.236889437,-0.193033415,-1.670105596,0.605978334,1756822663,0.277900892
4.855037055,0.083748791,-0.232103792,-0.216246294,-1.042136079,0.635299883,1756822663,0.291347717
4.376472535,0.526420972,-0.473778875,-0.313984732,-0.390953752,0.597426203,1756822663,0.273978896
3.919443419,0.624526699,-0.356530567,-0.393397231,0.304210889,0.592539299,1756822663,0.271737768
3.347558817,0.380458793,0.074177501,-0.480140077,0.985936529,0.477696634,1756822663,0.219071068
3.014956476,-0.330209519,0.665204683,-0.362853969,1.643227526,0.302989176,1756822663,0.13895045
2.720639296,-1.277767268,1.629512191,-0.083077672,2.188119336,0.120951317,1756822663,0.05546812
2.711068006,-1.954936064,3.450450189,0.309097793,2.614503272,-0.043982297,1756822663,-0.020170225
3.242274623,-2.234896308,7.396214657,0.8906415,2.933374996,-0.183259571,1756822663,-0.084042606
3.582055432,-1.095912751,13.87597826,1.323134071,3.196046839,-0.427605667,1756822663,-0.196099414
3.012563653,0.859023313,18.64008805,1.282817,3.368311011,-0.50701813,1756822663,-0.232517869
2.423929294,2.519642198,18.97747604,1.16675257,3.3023376,-0.570548115,1756822663,-0.261652639
2.428714939,3.04606317,19.20000854,0.966388789,2.819753905,-0.460592372,1756822663,-0.211227075
2.830709136,2.88095841,18.53241104,0.857654777,1.937664483,-0.273667627,1756822663,-0.125503625
2.842673249,2.600998166,19.67139459,0.766024991,1.034805731,0.02565634,1756822663,0.011765965
1.92382937,1.488335657,21.32004937,0.471587964,0.712268885,0.184481302,1756822663,0.08460289
2.222932195,0.390030084,22.98306107,0.194255146,0.619417386,0.161268423,1756822663,0.073957493
2.32821639,-0.997807024,21.83450623,-0.147829388,0.492357365,0.22968533,1756822663,0.1053334
2.148754695,-2.600998166,19.50150419,-0.398284135,0.295658793,0.350636647,1756822663,0.16080152
1.792224127,-4.185046727,16.8454711,-0.75747293,0.177150919,0.399505848,1756822663,0.183212873
1.320838075,-5.37427956,14.11765334,-0.982271286,0.196698607,0.399505848,1756822663,0.183212873
0.851844846,-5.737988595,11.97129147,-1.032362287,0.315206445,0.348193203,1756822663,0.159680959
0.440279358,-5.170889639,9.903892741,-1.040914348,0.472809694,0.293215297,1756822663,0.134468162
0.033499516,-4.12283334,8.221738454,-0.847880986,0.570548115,0.166155345,1756822663,0.07619863
-0.342173632,-2.758924458,6.630511425,-0.671951762,0.638965057,0.080634211,1756822663,0.036978746
-0.689132909,-1.526620819,5.197210687,-0.442266432,0.689055989,0.043982297,1756822663,0.020170225
-0.923629524,-0.722632425,3.907479306,-0.305432619,0.607200064,-0.097738438,1756822663,-0.044822723
-1.057627589,-0.224925324,2.699103893,-0.263893783,0.496022573,-0.108734012,1756822663,-0.049865279
-0.990628556,-0.019142581,1.579262916,-0.155159771,0.338419325,-0.166155345,1756822663,-0.07619863
-0.914058233,0.038285162,0.418743955,-0.081855942,0.173485728,-0.147829388,1756822663,-0.067794369
-0.904486943,0.30388847,-0.636490812,0.018325957,0.028099801,-0.138055544,1756822663,-0.063312097
-0.937986459,0.720239603,-1.287338559,0.116064395,-0.112399204,-0.105068821,1756822663,-0.048184427
-0.808774039,1.237089284,-1.313659607,0.092851516,-0.188146493,-0.120951317,1756822663,-0.05546812
-0.59820565,1.734796385,-0.382851616,0.073303829,-0.240680904,-0.098960169,1756822663,-0.045383007
-0.177068872,1.966900177,1.708475336,-0.008552113,-0.266337244,-0.118507856,1756822663,-0.054347552
0.344566454,2.005185339,4.335794551,-0.029321531,-0.149051118,-0.140499005,1756822663,-0.064432665
0.643669279,2.297109696,7.082754896,0.083077672,-0.00122173,-0.177150919,1756822663,-0.081241186
0.674775973,2.648854618,9.590432981,0.296880506,0.239459173,-0.200363798,1756822663,-0.091886583
0.583848714,3.507877932,13.38066398,0.370184317,0.467922755,-0.15393804,1756822663,-0.070595789
0.193818631,4.189832373,16.63968836,0.477696634,0.71837752,-0.032986723,1756822663,-0.015127669
-0.461814762,4.563112698,17.63270974,0.610865238,0.985936529,0.053756141,1756822663,0.024652498
-0.904486943,4.055834307,17.81695708,0.558330828,1.171639475,0.047647489,1756822663,0.021851078
-1.758724611,1.713260982,18.45584071,0.598647916,1.262047547,0.233350521,1756822663,0.107014252
-2.940778975,-1.217946703,19.62353814,0.932180353,1.219287033,0.113620934,1756822663,0.052106416
-3.766302772,-2.828316313,18.76930047,1.286482174,1.050688227,0.064751715,1756822663,0.029695054
-3.969692693,-2.92642204,21.44926179,1.351233872,0.819781167,0,1756822663,0
-4.280759631,-2.541177601,23.7272289,1.22417392,0.376292969,-0.087964594,1756822663,-0.040340451
-4.043870194,-2.407179536,22.98066825,0.827111515,-0.415388345,-0.083077672,1756822663,-0.038099315
-3.062812928,-2.553141714,20.05903186,0.318871654,-1.4172073,-0.145385927,1756822663,-0.066673801
-1.586441384,-2.852244539,16.53679699,-0.155159771,-2.432465291,-0.259006861,1756822663,-0.118780217
-0.06460621,-3.184846881,13.97647681,-0.491135634,-3.210707814,-0.265115513,1756822663,-0.121581637
1.574477271,-3.132204783,11.43290638,-0.692721163,-3.88510302,-0.17959438,1756822663,-0.082361754
2.919243572,-2.691925425,8.805587168,-0.801455158,-4.375016801,-0.095294977,1756822663,-0.043702155
3.857230031,-1.909472435,6.393621987,-0.740368634,-4.676784107,0.039095375,1756822663,0.017929089
4.596612215,-1.256231865,4.285545277,-0.685390797,-4.756196919,0.295658793,1756822663,0.135588746
5.151747058,-0.595812827,2.739781877,-0.632856352,-4.64990642,0.419053553,1756822663,0.192177426
5.620740287,-0.265603309,1.701296869,-0.450818546,-4.309043373,0.576656802,1756822663,0.264454075
5.986842145,-0.179461695,0.937986459,-0.322536846,-3.813020834,0.667064858,1756822663,0.305915094
6.147161259,-0.031106694,0.392422906,-0.23090706,-3.218038162,0.687834258,1756822663,0.315439914
6.123233033,0.306281293,-0.136390888,-0.131946891,-2.543642939,0.682947354,1756822663,0.313198787
5.879165128,0.686740086,-0.557527666,-0.151494579,-1.811826262,0.634078152,1756822663,0.290787433
5.419743189,1.239482107,-0.799202748,-0.279776297,-1.067792436,0.594982742,1756822663,0.272858328
4.929214556,1.653440417,-0.744167829,-0.458148929,-0.222354947,0.504574687,1756822663,0.231397309
4.3621156,1.622333723,-0.406779842,-0.619417386,0.667064858,0.48747046,1756822663,0.223553332
3.94815729,1.048056299,0.083748791,-0.646295405,1.485624312,0.34086282,1756822663,0.156319255
3.440878899,0.102891372,0.705882667,-0.500909513,2.206445205,0.164933614,1756822663,0.075638345
3.029313412,-0.665204683,1.488335657,-0.1282817,2.789210643,-0.040317106,1756822663,-0.018489373
3.136990429,-1.658226062,3.550948738,0.394618961,3.219259753,-0.251676478,1756822663,-0.115418512
3.651447288,-1.797009773,7.879564822,0.994488608,3.481931858,-0.349414916,1756822663,-0.160241235
4.029513258,-0.387637261,14.99342641,1.552819453,3.710395387,-0.581543707,1756822663,-0.266695203
3.493520996,1.816152353,19.53739653,1.453859319,3.842342244,-0.648738848,1756822663,-0.297510809
2.833101958,2.952743088,19.21436548,1.164309127,3.668856743,-0.60353489,1756822663,-0.276780332
2.560320182,3.433700431,19.83410653,0.908967509,3.196046839,-0.557109097,1756822663,-0.255489522
3.170489945,3.409772205,18.57308902,0.667064858,2.178345405,-0.298102236,1756822663,-0.136709306
2.368894374,2.510070907,19.15693774,0.482583538,1.22539565,-0.029321531,1756822663,-0.013446817
1.49072848,0.815952507,21.513868,0.063529985,0.927293449,-0.010995574,1756822663,-0.005042556
1.777867192,-0.799202748,22.16232292,-0.240680904,0.713490616,-0.065973446,1756822663,-0.030255338
1.957328887,-2.146361872,20.42034807,-0.452040276,0.529009279,0.004886922,1756822663,0.002241136
1.871187273,-3.431307608,18.03709676,-0.612086969,0.272445896,0.117286126,1756822663,0.053787268
1.533799287,-4.48175673,15.46720529,-0.889419769,0.120951317,0.155159771,1756822663,0.071156073
1.088734283,-5.108676251,12.87577841,-1.069014167,0.113620934,0.149051118,1756822663,0.068354653
0.650847747,-5.161318348,10.5978113,-1.048244766,0.216246294,0.080634211,1756822663,0.036978746
0.153140646,-4.553541408,8.444270955,-1.028697044,0.367740873,-0.004886922,1756822663,-0.002241136
-0.315852583,-3.536591803,6.58026215,-0.81489421,0.498466017,-0.173485728,1756822663,-0.079560334
-0.696311377,-2.347358971,4.931607379,-0.691499432,0.544891775,-0.265115513,1756822663,-0.121581637
-1.024128073,-1.418943802,3.682553981,-0.537561392,0.580321976,-0.343306264,1756822663,-0.157439815
-1.20598259,-0.813559684,2.617747924,-0.408057962,0.481361808,-0.431270841,1756822663,-0.197780258
-1.241874929,-0.449850649,1.653440417,-0.289550123,0.390953752,-0.459370659,1756822663,-0.210666799
-1.232303639,-0.232103792,0.715453957,-0.096516708,0.260228591,-0.453261989,1756822663,-0.207865371
-1.301695494,0.117248307,-0.327816696,0.072082098,0.140499005,-0.427605667,1756822663,-0.196099414
-1.399801221,0.552742021,-1.14137638,0.174707458,0.02565634,-0.379958178,1756822663,-0.174248336
-1.222732349,1.01216396,-1.203589768,0.234572251,-0.116064395,-0.386066848,1756822663,-0.177049765
-0.906879765,1.344766301,-0.232103792,0.182037841,-0.180816111,-0.349414916,1756822663,-0.160241235
-0.4235296,1.562513158,1.933400661,0.172263997,-0.206472451,-0.333532438,1756822663,-0.152957551
0.090927259,1.689332756,4.742574393,0.138055544,-0.146607657,-0.276111088,1756822663,-0.126624193
0.397208552,2.110469533,7.264609414,0.234572251,-0.057421332,-0.272445896,1756822663,-0.124943341
0.442672181,2.478964214,9.961320484,0.335975881,0.105068821,-0.228463599,1756822663,-0.104773115
0.361316213,3.10109809,13.37109269,0.422718727,0.295658793,-0.136833813,1756822663,-0.062751812
0.143569356,3.656232933,16.0725894,0.502131226,0.521678896,-0.02443461,1756822663,-0.011205681
-0.193818631,3.826123337,17.65424514,0.520457183,0.708603641,0.032986723,1756822663,0.015127669
-0.399601374,2.957528734,18.74537225,0.543670062,0.902858822,0.068416907,1756822663,0.031375906
-1.038485008,0.646062102,19.37229177,0.768468452,0.984714729,0.113620934,1756822663,0.052106416
-2.105683888,-2.074577194,21.44686896,1.189965484,1.017701504,0.008552113,1756822663,0.003921988
-2.560320182,-3.438486076,20.59980976,1.463633128,0.935845527,-0.138055544,1756822663,-0.063312097
-2.868994297,-3.249453091,22.60020946,1.3976597,0.665843145,-0.15271631,1756822663,-0.070035505
-3.122633493,-2.768495748,23.59801648,1.126435517,0.228463599,-0.268780705,1756822663,-0.123262489
-2.746960345,-2.675175667,22.16710857,0.635299883,-0.597426203,-0.288328392,1756822663,-0.132227033
-2.02432792,-2.986242605,18.94636935,0.151494579,-1.565036705,-0.379958178,1756822663,-0.174248336
-0.65324057,-3.383451156,16.1036961,-0.200363798,-2.475226067,-0.43493605,1756822663,-0.199461118
1.148554848,-3.510270754,13.56012567,-0.49357913,-3.362202254,-0.405614518,1756822663,-0.186014301
2.538784779,-2.868994297,11.05723323,-0.629191178,-4.026823668,-0.302989176,1756822663,-0.13895045
3.684946804,-1.880758564,8.432306842,-0.70005158,-4.541172216,-0.167377075,1756822663,-0.076758913
4.472185439,-0.437886536,5.431707302,-0.713490616,-4.79529212,0.035430184,1756822663,0.016248237
4.821537539,0.210568389,3.823730515,-0.665843145,-4.774522667,0.208915911,1756822663,0.095808571
5.266602543,0.770488877,2.311466632,-0.569326385,-4.568050443,0.355523586,1756822663,0.163042664
5.73320295,0.859023313,1.136590735,-0.438601224,-4.114788157,0.422718727,1756822663,0.19385827
5.965306742,0.691525731,0.519242504,-0.283441471,-3.629761263,0.508239896,1756822663,0.233078169
6.10169763,0.681954441,0.086141614,-0.246789556,-2.954144205,0.557109097,1756822663,0.255489522
6.003591903,0.861416136,-0.270388954,-0.2565634,-2.26997519,0.531452775,1756822663,0.243723566
5.596812061,1.194018477,-0.643669279,-0.329867229,-1.496619834,0.533896218,1756822663,0.244844125
5.168496816,1.586441384,-0.914058233,-0.477696634,-0.711047172,0.447153372,1756822663,0.205063967
4.694717941,1.773081547,-0.71784678,-0.646295405,0.098960169,0.425162223,1756822664,0.194978854
4.280759631,1.536192109,-0.272781776,-0.780685774,0.923628205,0.315206445,1756822664,0.144553274
3.747160192,0.760917587,0.559920488,-0.712268885,1.842369523,0.107512282,1756822664,0.049304996
3.462414302,-0.016749758,1.299302672,-0.498466017,2.417804595,-0.098960169,1756822664,-0.045383007
3.235096155,-1.071984525,2.3928226,-0.131946891,2.823419201,-0.311541271,1756822664,-0.14287243
3.397808092,-1.749153321,4.383651003,0.419053553,3.215594701,-0.496022573,1756822664,-0.22747532
4.216153421,-1.476371544,10.00199847,1.149648431,3.386636758,-0.691499432,1756822664,-0.317120759
4.051048662,1.208375413,18.26441491,1.430646405,3.360980663,-0.726929668,1756822664,-0.33336902
3.330809059,2.333002035,19.17847314,1.197295832,3.24491611,-0.723264425,1756822664,-0.331688144
3.354737285,2.790031152,18.77887176,0.889419769,2.724459067,-0.686612528,1756822664,-0.314879631
4.144368743,2.490928327,18.20220152,0.708603641,1.82770881,-0.376292969,1756822664,-0.172567476
4.254438583,1.660618884,19.22393677,0.559552576,0.985936529,-0.032986723,1756822664,-0.015127669
2.833101958,0.22971097,21.36312017,0.219911486,0.768468452,0.037873645,1756822664,0.017368805
3.034099057,-0.806381216,21.71965074,-0.114842665,0.784350948,0.054977871,1756822664,0.025212782
3.029313412,-2.031506387,20.09253137,-0.419053553,0.702495024,0.003665191,1756822664,0.001680852
2.565105827,-3.500699464,18.11366708,-0.671951762,0.620639099,0.064751715,1756822664,0.029695054
1.775474369,-4.735395925,15.56052537,-0.971275764,0.636521596,0.149051118,1756822664,0.068354653
1.074377347,-5.278566656,13.14377454,-1.125213786,0.761138104,0.10140363,1756822664,0.046503576
0.30388847,-5.436492947,10.79402275,-1.144761387,0.899193631,0.074525559,1756822664,0.034177326
-0.418743955,-4.838287297,8.477770472,-1.028697044,1.017701504,-0.05253441,1756822664,-0.024092214
-1.057627589,-3.811766402,6.374479406,-0.827111515,1.067792436,-0.157603231,1756822664,-0.072276641
-1.428515092,-2.50289244,4.565505521,-0.636521596,1.023810139,-0.28099801,1756822664,-0.128865329
-1.622333723,-1.440479205,3.306880833,-0.491135634,0.873537273,-0.405614518,1756822664,-0.186014301
-1.713260982,-0.746560651,2.443071875,-0.323758559,0.663399614,-0.449596815,1756822664,-0.206184527
-1.708475336,-0.315852583,1.787438482,-0.172263997,0.394618961,-0.481361808,1756822664,-0.220751912
-1.698904046,0.047856452,0.909272588,-0.056199602,0.180816111,-0.486248747,1756822664,-0.222993056
-1.741974853,0.30388847,0.208175566,0.007330383,0.015882496,-0.431270841,1756822664,-0.197780258
-1.761117434,0.696311377,-0.643669279,0.112399204,-0.15393804,-0.350636647,1756822664,-0.16080152
-1.588834206,1.184447187,-1.019342428,0.123394778,-0.324980324,-0.370184317,1756822664,-0.169766056
-1.110269686,1.5457634,-0.461814762,0.124616509,-0.489913921,-0.331088942,1756822664,-0.151836967
-0.547956375,1.765903079,1.493121302,0.105068821,-0.579100246,-0.30665435,1756822664,-0.140631294
0.150747824,1.892722677,4.354937132,0.112399204,-0.631634639,-0.196698607,1756822664,-0.090205731
0.581455892,2.409572358,7.161718042,0.108734012,-0.520457183,-0.17959438,1756822664,-0.082361754
0.825523797,2.8163522,9.652646368,0.221133216,-0.326202055,-0.169820536,1756822664,-0.077879481
0.933200814,3.515056399,12.69870954,0.320093385,-0.147829388,-0.072082098,1756822664,-0.033056758
0.722632425,4.240081647,16.21376594,0.313984732,0.144164196,0.042760567,1756822664,0.019609942
0.538385085,4.419543342,17.90549152,0.312763002,0.456927198,0.067195176,1756822664,0.030815622
0.378065971,3.498306641,18.37687757,0.219911486,0.762359817,0.117286126,1756822664,0.053787268
0.050249275,0.758524764,18.58983878,0.428827397,0.938288971,0.112399204,1756822664,0.051546132
-0.571884601,-2.533999133,20.37967008,0.968832233,1.040914348,0.02443461,1756822664,0.011205681
-1.110269686,-4.560719876,20.10688831,1.429424692,1.017701504,-0.114842665,1756822664,-0.0526667
-1.605583965,-4.18743955,22.22214349,1.624901499,0.857654777,-0.113620934,1756822664,-0.052106416
-1.998006871,-3.337987527,23.98804656,1.437976753,0.5131268,-0.213802833,1756822664,-0.098049707
-1.847259047,-2.648854618,23.07638115,1.054353401,-0.22968533,-0.268780705,1756822664,-0.123262489
-1.464407431,-2.557927359,19.94656919,0.427605667,-1.170417761,-0.294437062,1756822664,-0.135028462
-0.337387987,-2.75174599,16.56790368,-0.087964594,-2.127032812,-0.366519143,1756822664,-0.168085212
1.050449121,-2.938386153,14.02672608,-0.518013722,-2.973692067,-0.344527994,1756822664,-0.158000099
2.478964214,-2.612962279,11.62433219,-0.79534654,-3.630982854,-0.249233017,1756822664,-0.114297944
3.491128173,-1.90468679,9.154939268,-0.860098238,-4.09646241,-0.130725161,1756822664,-0.059950392
4.235296002,-0.94755775,6.728617151,-0.867428656,-4.312708686,0.018325957,1756822664,0.008404261
4.790430845,-0.06460621,4.591826569,-0.805120401,-4.361577696,0.156381501,1756822664,0.071716357
5.149354235,0.524028149,2.916850749,-0.681725623,-4.168544316,0.279776297,1756822664,0.128305053
5.553741255,0.818345329,1.655833239,-0.590095838,-3.77026032,0.406836231,1756822664,0.186574577
5.869593838,0.760917587,0.799202748,-0.503352956,-3.28401159,0.516792009,1756822664,0.237000157
5.938985693,0.59820565,0.277567422,-0.433714319,-2.714684996,0.58276542,1756822664,0.267255479
5.781059402,0.571884601,-0.138783711,-0.404392788,-1.968207745,0.601091377,1756822664,0.27565974
5.407779076,0.715453957,-0.485742988,-0.398284135,-1.361007803,0.596204472,1756822664,0.273418611
4.833501652,0.988235734,-0.775274522,-0.475253155,-0.572991628,0.538783158,1756822664,0.24708527
4.275973986,1.138983558,-0.710668312,-0.601091377,0.151494579,0.48747046,1756822664,0.223553332
3.742374546,0.911665411,-0.24885355,-0.691499432,0.943175945,0.373849526,1756822664,0.171446916
3.270988494,0.327816696,0.385244439,-0.615752143,1.600466872,0.206472451,1756822664,0.094688003
2.909672282,-0.485742988,1.150947671,-0.412944901,2.213775553,0.073303829,1756822664,0.033617043
2.720639296,-1.323230898,2.199003969,-0.089186325,2.711019962,-0.199142068,1756822664,-0.091326299
2.749353167,-1.971685822,3.94815729,0.409279727,3.066543443,-0.464257581,1756822664,-0.212907935
3.311666478,-1.962114532,7.396214657,1.042136079,3.219259753,-0.576656802,1756822664,-0.264454075
3.59880519,-0.89252283,12.87577841,1.47462865,3.252246458,-0.695164676,1756822664,-0.318801635
3.328416237,1.143769203,17.91027716,1.549154279,3.152064734,-0.73670346,1756822664,-0.337851268
2.249253244,2.407179536,19.02772532,1.238834755,2.960252962,-0.785572661,1756822664,-0.360262622
2.907279459,1.911865257,18.9726904,1.067792436,2.417804595,-0.777020583,1756822664,-0.35634065
3.371487043,2.550748892,18.10648861,0.768468452,1.560149801,-0.438601224,1756822664,-0.201141963
4.235296002,2.435893407,19.41536258,0.56443948,0.636521596,-0.089186325,1756822664,-0.040900735
3.450450189,0.253639196,20.88216283,0.234572251,0.177150919,0.109955743,1756822664,0.050425564
3.806980757,-1.093519928,21.71725792,-0.1282817,0.15393804,0.139277274,1756822664,0.06387238
4.106083582,-2.531606311,20.33181363,-0.343306264,0.120951317,0.161268423,1756822664,0.073957493
3.582055432,-4.113262049,18.58026749,-0.649960648,0.118507856,0.207694181,1756822664,0.095248287
2.98145696,-5.197210687,16.2520511,-0.937067258,0.278554549,0.197920337,1756822664,0.090766014
2.108076711,-5.778666579,13.80419358,-1.117883438,0.541226601,0.162490153,1756822664,0.074517777
1.170090251,-5.79780916,11.32283654,-1.259604086,0.811229036,0.068416907,1756822664,0.031375906
0.370887503,-5.056034154,8.985048863,-1.155757048,1.02503187,-0.10140363,1756822664,-0.046503576
-0.3493521,-3.723231966,6.915257314,-0.985936529,1.126435517,-0.252898209,1756822664,-0.115978796
-0.868594604,-2.483749859,5.343172866,-0.714712346,1.132544134,-0.30054568,1756822664,-0.137829866
-1.217946703,-1.457228963,4.060619952,-0.497244304,1.027475313,-0.390953752,1756822664,-0.179290893
-1.406979689,-0.691525731,2.98145696,-0.398284135,0.849102716,-0.444709893,1756822664,-0.20394339
-1.466800254,-0.155533469,2.28275276,-0.208915911,0.64018677,-0.441044702,1756822664,-0.202262538
-1.514656706,0.311066938,1.866401628,-0.145385927,0.439822989,-0.444709893,1756822664,-0.20394339
-1.572084448,0.605384118,1.272981623,-0.07819075,0.277332818,-0.389732022,1756822664,-0.178730609
-1.622333723,1.081555815,0.081355968,-0.02687807,0.037873645,-0.327423768,1756822664,-0.150156123
-1.540977754,1.136590735,-0.849452023,0.046425758,-0.017104227,-0.278554549,1756822664,-0.127744761
-1.277767268,1.512263883,-1.031306541,0.096516708,-0.213802833,-0.284663184,1756822664,-0.130546174
-0.744167829,1.569691626,-0.035892339,0.083077672,-0.353080108,-0.194255146,1756822664,-0.089085162
-0.244067905,1.708475336,2.347358971,0.130725161,-0.442266432,-0.10140363,1756822664,-0.046503576
0.267996131,1.964507355,5.362315447,0.304210889,-0.43493605,-0.062308254,1756822664,-0.028574486
0.361316213,2.581855585,8.317451358,0.270002435,-0.309097793,-0.030543262,1756822664,-0.014007101
0.545563553,3.2398818,10.90409259,0.464257581,-0.112399204,0.02443461,1756822664,0.011205681
0.205782744,4.079762533,14.4095777,0.455705485,0.167377075,0.145385927,1756822664,0.066673801
0.138783711,4.390829471,17.17807345,0.483805251,0.515570278,0.161268423,1756822664,0.073957493
-0.050249275,4.106083582,18.34337805,0.382401639,0.85276789,0.171042267,1756822664,0.078439766
-0.234496615,2.017149452,18.32902112,0.370184317,1.07145761,0.250454748,1756822664,0.114858228
-0.823130974,-0.961914685,19.04926072,0.704938467,1.122770343,0.125838239,1756822664,0.057709256
-1.720439449,-3.603590836,20.04946057,1.291369079,1.114218194,0.061086524,1756822664,0.028014202
-2.096112598,-4.3621156,20.16431605,1.563814975,0.91018924,-0.096516708,1756822664,-0.044262439
-2.50289244,-4.048655839,22.90409793,1.483180851,0.632856352,-0.135612083,1756822664,-0.062191529
-2.766102926,-3.46959277,23.46880406,1.16675257,0.081855942,-0.199142068,1756822664,-0.091326299
-2.330609212,-3.46002148,21.42533356,0.65973444,-0.808785575,-0.30665435,1756822664,-0.140631294
-1.213161058,-3.993620919,18.41276991,0.086742864,-1.802052453,-0.313984732,1756822664,-0.143992998
0.473778875,-4.407579229,15.85484255,-0.279776297,-2.671924482,-0.346971438,1756822664,-0.159120659
1.92382937,-4.283152454,13.4356989,-0.56321775,-3.402519324,-0.215024564,1756822664,-0.098609991
3.227917687,-3.445664544,11.04048348,-0.671951762,-3.970624048,-0.105068821,1756822664,-0.048184427
3.912264951,-2.294716873,8.695517328,-0.67928211,-4.279721981,-0.003665191,1756822664,-0.001680852
4.31665197,-0.679561618,6.137589969,-0.62308256,-4.36402114,0.155159771,1756822664,0.071156073
4.716253345,0.945164927,3.493520996,-0.497244304,-4.240626501,0.334754151,1756822664,0.153517827
5.146961413,1.127019445,2.423929294,-0.411723171,-3.953519891,0.389732022,1756822664,0.178730609
6.070590936,0.672383151,1.593619852,-0.348193203,-3.5906658,0.458148929,1756822664,0.210106515
5.848058434,1.311266785,0.856630491,-0.248011287,-2.995683111,0.530231009,1756822664,0.243163265
5.919843112,1.287338559,0.457029117,-0.248011287,-2.401922029,0.532674488,1756822664,0.244283842
6.465406665,1.433300737,0.222532502,-0.244346095,-1.604132185,0.530231009,1756822664,0.243163265
5.508277625,1.409372511,-0.157926292,-0.268780705,-0.952949737,0.598647916,1756822664,0.274539172
4.878965281,1.476371544,-0.411565487,-0.394618961,-0.185703032,0.5131268,1756822664,0.235319297
4.146761566,2.031506387,-0.418743955,-0.450818546,0.572991628,0.439822989,1756822664,0.201702262
3.675375514,1.55533469,-0.217746857,-0.612086969,1.31946888,0.403171057,1756822664,0.184893733
3.058027283,1.01216396,0.198604276,-0.56321775,1.944994953,0.140499005,1756822664,0.064432665
2.495713972,0.337387987,0.832702265,-0.420275284,2.406808934,-0.010995574,1756822664,-0.005042556
2.141576227,-0.672383151,2.0434705,-0.072082098,2.783102147,-0.321315115,1756822664,-0.147354702
2.242074776,-1.048056299,3.871586967,0.376292969,2.96758331,-0.404392788,1756822664,-0.185454017
3.943371645,-1.718046627,8.54955515,0.770911896,2.792875939,-0.431270841,1756822665,-0.197780258
2.794816797,0.141176533,14.04108302,1.318247167,2.9492573,-0.610865238,1756822665,-0.28014202
2.416750826,1.792224127,18.8458708,1.33901662,2.943148805,-0.69882985,1756822665,-0.320482479
2.029113565,0.808774039,18.99901144,1.160643953,2.6609291,-0.669508319,1756822665,-0.307035662
1.866401628,2.445464697,18.62573112,1.038470905,2.113593689,-0.50701813,1756822665,-0.232517869
2.998206718,2.172682921,18.48694741,0.805120401,1.227839094,-0.290771853,1756822665,-0.133347601
3.940978822,1.689332756,19.89631992,0.711047172,0.35796703,0.091629786,1756822665,0.042021303
3.022134944,0.088534436,21.365513,0.337197611,0.140499005,0.172263997,1756822665,0.07900005
3.471985593,-1.160518961,21.77468566,0.006108652,0.232128791,0.135612083,1756822665,0.062191529
3.885943902,-2.56749865,20.24806484,-0.227241869,0.272445896,0.135612083,1756822665,0.062191529
3.448057367,-4.034298904,18.50848281,-0.560774306,0.342084533,0.133168622,1756822665,0.06107096
2.766102926,-5.115854719,16.53918981,-0.801455158,0.529009279,0.157603231,1756822665,0.072276641
1.591227029,-5.898307709,13.42852043,-1.001819026,0.900415361,0.164933614,1756822665,0.075638345
0.83748791,-5.577669481,11.75354461,-1.058018575,1.086118394,0.108734012,1756822665,0.049865279
0.004785645,-4.977071008,9.619146852,-0.938288971,1.238834755,0.053756141,1756822665,0.024652498
-0.760917587,-3.507877932,7.618747158,-0.681725623,1.303586453,-0.096516708,1756822665,-0.044262439
-1.296909849,-2.304288164,6.034698597,-0.494800843,1.222952207,-0.10140363,1756822665,-0.046503576
-1.708475336,-1.203589768,4.689932296,-0.392175465,1.076344515,-0.151494579,1756822665,-0.069475221
-1.818545176,-0.473778875,3.462414302,-0.30665435,0.739146903,-0.186924763,1756822665,-0.085723458
-1.993221226,0.026321049,2.603390989,-0.227241869,0.521678896,-0.226020138,1756822665,-0.103652547
-2.041077678,0.334995164,1.890329854,-0.141720735,0.259006861,-0.212581103,1756822665,-0.097489423
-2.021935097,0.473778875,1.208375413,-0.068416907,0.087964594,-0.164933614,1756822665,-0.075638345
-2.012363807,0.658026215,0.11006984,-0.013439035,-0.070860368,-0.125838239,1756822665,-0.057709256
-1.981257113,1.002592669,-0.875773072,0.085521133,-0.234572251,-0.138055544,1756822665,-0.063312097
-1.703689691,1.402194044,-1.222732349,0.1282817,-0.395840674,-0.177150919,1756822665,-0.081241186
-1.158126138,1.653440417,-0.36849468,0.151494579,-0.585208881,-0.107512282,1756822665,-0.049304996
-0.524028149,1.842473402,1.880758564,0.149051118,-0.668286588,-0.087964594,1756822665,-0.040340451
0.117248307,2.177468566,4.984249476,0.149051118,-0.733038286,-0.014660766,1756822665,-0.006723409
0.519242504,2.727817764,8.023134178,0.346971438,-0.594982742,0.012217305,1756822665,0.005602841
0.650847747,3.347558817,10.48534863,0.395840674,-0.448375102,0.043982297,1756822665,0.020170225
0.36849468,4.144368743,13.75633713,0.386066848,-0.185703032,0.083077672,1756822665,0.038099315
0.107677017,4.668396893,16.1467669,0.399505848,0.151494579,0.133168622,1756822665,0.06107096
-0.002392823,4.395615116,17.28575046,0.445931606,0.485027017,0.090408055,1756822665,0.041461019
-0.428315245,0.105284194,17.92702692,0.696386406,0.918741301,0.116064395,1756822665,0.053226984
-0.696311377,-0.770488877,18.30987854,0.830776689,0.96761052,0.089186325,1756822665,0.040900735
-1.636690658,-3.187239703,19.36032766,1.248608564,0.866206925,0.029321531,1756822665,0.013446817
-2.16311163,-3.684946804,20.14038782,1.503950182,0.702495024,-0.046425758,1756822665,-0.021290793
-2.536391956,-3.326023414,22.79163527,1.472185189,0.427605667,-0.067195176,1756822665,-0.030815622
-2.701496715,-2.842673249,23.39941221,1.203404467,-0.05253441,-0.120951317,1756822665,-0.05546812
-1.890329854,-2.890529701,21.83450623,0.768468452,-0.85154616,-0.218689755,1756822665,-0.100290843
-1.014556782,-2.976671314,18.65923063,0.287106679,-1.743409372,-0.218689755,1756822665,-0.100290843
0.361316213,-3.00059954,15.64188134,-0.239459173,-2.717128457,-0.212581103,1756822665,-0.097489423
1.550549045,-2.254038889,13.37827116,-0.554665654,-3.457497353,-0.190589954,1756822665,-0.08740431
3.00059954,-1.598405497,11.30130114,-0.817337724,-4.118453453,-0.119729587,1756822665,-0.054907836
5.668596739,-3.637090352,9.798608547,-0.673173492,-4.243069962,0.112399204,1756822665,0.051546132
6.017948839,-2.600998166,6.807580297,-0.702495024,-4.383569019,0.317649941,1756822665,0.145673858
4.847858588,0.370887503,4.022334791,-0.662177901,-4.331034434,0.453261989,1756822665,0.207865371
5.185246574,0.976271621,2.620140747,-0.549778714,-4.052480025,0.510683339,1756822665,0.234198729
5.840879967,1.275374446,1.639083481,-0.467922755,-3.591887653,0.691499432,1756822665,0.317120759
7.925028451,-0.46899323,0.863808959,-0.382401639,-3.183829587,0.664621414,1756822665,0.304794534
6.118447388,0.47856452,0.497707101,-0.249233017,-2.338392062,0.735481729,1756822665,0.337290984
5.910271822,0.949950572,0.081355968,-0.310319558,-1.624901499,0.69882985,1756822665,0.320482479
5.376672382,1.146162025,-0.258424841,-0.398284135,-0.923628205,0.728151381,1756822665,0.333929296
4.857429878,1.265803155,-0.394815729,-0.518013722,-0.171042267,0.693942876,1756822665,0.318241319
4.31665197,1.074377347,-0.253639196,-0.668286588,0.692721163,0.624304273,1756822665,0.286305144
3.493520996,0.899701298,0.136390888,-0.687834258,1.290147348,0.54611354,1756822665,0.250446974
2.983849782,0.411565487,0.667597505,-0.619417386,1.964542571,0.295658793,1756822665,0.135588746
2.498106794,-0.287138712,1.416550979,-0.345749707,2.481334563,0.119729587,1756822665,0.054907836
2.184647034,-0.873380249,2.330609212,0,2.891836073,-0.130725161,1756822665,-0.059950392
2.155933163,-1.404586866,4.374079713,0.56321775,2.996904981,-0.386066848,1756822665,-0.177049765
2.557927359,-1.14137638,8.197810228,1.187522041,3.117856158,-0.527787566,1756822665,-0.242042705
2.562713005,0.17467605,13.93579882,1.599245141,3.082426009,-0.591317568,1756822665,-0.271177483
2.053041791,1.885544209,18.15913071,1.605353898,2.973692067,-0.656069266,1756822665,-0.30087253
1.560120335,2.545963246,18.72862249,1.352455602,2.667037595,-0.652404092,1756822665,-0.299191686
1.734796385,2.775674216,18.85544209,1.164309127,2.073276636,-0.496022573,1756822665,-0.22747532
3.012563653,2.959921556,18.6448737,0.893084943,1.106887777,-0.227241869,1756822665,-0.104212832
3.907479306,2.543570424,19.67618024,0.673173492,0.15271631,0.219911486,1756822665,0.100851127
2.859423007,0.777667345,21.05683888,0.284663184,-0.217468025,0.301767445,1756822665,0.138390166
3.661018578,-0.655633392,21.14776614,-0.081855942,-0.116064395,0.344527994,1756822665,0.158000099
3.969692693,-2.261217357,19.75275056,-0.315206445,-0.079412481,0.276111088,1756822665,0.126624193
3.759124305,-3.974478339,18.11845273,-0.586430594,-0.02687807,0.277332818,1756822665,0.127184477
3.242274623,-5.338387221,16.13240997,-0.91018924,0.162490153,0.298102236,1756822665,0.136709306
2.493321149,-6.094519162,13.96451269,-1.010371087,0.456927198,0.195476876,1756822665,0.089645446
1.648654771,-6.058626823,11.65783171,-1.11055302,0.761138104,0.20525072,1756822665,0.094127719
0.894915652,-5.151747058,9.597611449,-0.939510771,1.004262469,0.014660766,1756822665,0.006723409
0.318245406,-3.720839143,7.609175868,-0.715934059,1.1484267,-0.020769418,1756822665,-0.009524829
-0.356530567,-2.02432792,5.924628758,-0.43493605,1.159422222,-0.156381501,1756822665,-0.071716357
-0.674775973,-1.122233799,5.07996238,-0.293215297,1.056796845,-0.175929189,1756822665,-0.080680902
-1.06719888,-0.339780809,4.29750939,-0.2565634,1.001819026,-0.10262536,1756822665,-0.047063859
-1.146162025,0.363709035,3.292523898,-0.194255146,0.751364226,-0.251676478,1756822665,-0.115418512
-1.093519928,0.617348231,2.344966148,-0.195476876,0.560774306,-0.273667627,1756822665,-0.125503625
-1.363908882,0.70827549,1.045663476,-0.164933614,0.379958178,-0.196698607,1756822665,-0.090205731
-1.421336624,0.784845813,-0.100498549,-0.054977871,0.173485728,-0.251676478,1756822665,-0.115418512
-1.392622753,1.08634146,-0.906879765,-0.023212879,0.028099801,-0.07696902,1756822665,-0.035297895
-1.146162025,1.627119368,-1.182054364,0.019547688,-0.112399204,-0.147829388,1756822665,-0.067794369
-0.725025248,2.000399694,-0.198604276,-0.032986723,-0.299323967,-0.114842665,1756822665,-0.0526667
-0.205782744,2.304288164,2.132004937,-0.089186325,-0.345749707,-0.046425758,1756822665,-0.021290793
0.36849468,2.593819698,4.96032125,-0.142942466,-0.338419325,-0.07574729,1756822665,-0.034737611
0.390030084,3.022134944,7.451249576,-0.032986723,-0.250454748,-0.032986723,1756822665,-0.015127669
0.928415169,3.127419138,9.999605645,0.164933614,0.087964594,-0.048869219,1756822665,-0.022411362
0.583848714,3.996013742,13.19641664,0.271224166,0.360410491,0.07696902,1756822665,0.035297895
0.332602341,4.773681087,16.29512191,0.30054568,0.686612528,0.207694181,1756822665,0.095248287
0.047856452,4.670789715,17.49392603,0.30054568,0.961501885,0.283441471,1756822665,0.129985898
-0.234496615,2.801995265,16.92682707,0.243124365,1.05190994,0.400727579,1756822665,0.183773157
-0.880558717,0.095712904,17.45324804,0.586430594,1.050688227,0.395840674,1756822665,0.181532029
-1.263410333,-2.651247441,20.00160411,1.158200509,0.938288971,0.355523586,1756822665,0.163042664
-1.569691626,-4.06779842,20.03749645,1.563814975,0.735481729,0.217468025,1756822665,0.099730559
-2.076970017,-3.833301805,22.44467599,1.615127707,0.535117949,0.23090706,1756822665,0.105893684
-2.354537438,-3.309273656,23.81097769,1.446528832,0.216246294,0.096516708,1756822665,0.044262439
-2.206182437,-2.947957443,22.4351047,1.045801253,-0.388510291,-0.023212879,1756822665,-0.010645397
-1.550549045,-2.974278492,19.3124712,0.504574687,-1.237613042,-0.096516708,1756822665,-0.044262439
-0.650847747,-3.278166962,16.48654771,-0.062308254,-2.17223677,-0.207694181,1756822665,-0.095248287
1.048056299,-3.641875997,14.6847523,-0.518013722,-3.043330529,-0.25534167,1756822665,-0.117099365
2.56749865,-3.395415269,12.70588801,-0.71837752,-3.55279219,-0.228463599,1756822665,-0.104773115
3.878765435,-2.634497683,9.932606613,-0.810007306,-4.035375886,-0.114842665,1756822665,-0.0526667
4.594219392,-1.593619852,7.448856754,-0.723264425,-4.25040031,-0.007330383,1756822665,-0.003361704
5.000999234,-0.775274522,5.544169964,-0.642630231,-4.256509067,0.162490153,1756822665,0.074517777
5.38385085,0.035892339,3.885943902,-0.543670062,-4.098905853,0.254119939,1756822665,0.11653908
5.876772306,0.313459761,2.775674216,-0.471587964,-3.676187091,0.41050144,1756822665,0.188255437
6.15673255,0.555134843,1.792224127,-0.351858377,-3.158173229,0.532674488,1756822665,0.244283842
6.238088518,0.591027182,1.038485008,-0.343306264,-2.580294696,0.569326385,1756822665,0.261092355
6.199803357,0.545563553,0.459421939,-0.293215297,-1.825265367,0.596204472,1756822665,0.273418611
5.994020613,0.591027182,0.078963146,-0.337197611,-1.199739293,0.631634639,1756822665,0.289666841
5.268995365,0.904486943,-0.241675083,-0.408057962,-0.456927198,0.580321976,1756822665,0.266134919
4.658825602,1.217946703,-0.650847747,-0.477696634,0.453261989,0.686612528,1756822665,0.314879631
4.48175673,0.409172665,-0.330209519,-0.607200064,1.072679341,0.572991628,1756822665,0.262773231
3.605983658,0.150747824,0.143569356,-0.618195586,1.887573621,0.520457183,1756822665,0.238681001
3.543770271,-1.210768236,0.7728817,-0.441044702,2.470338901,0.342084533,1756822665,0.156879531
2.543570424,-0.638883634,0.978664443,-0.106290551,3.012787268,0.07696902,1756822665,0.035297895
1.933400661,-1.136590735,1.919043725,0.290771853,3.276681225,-0.145385927,1756822665,-0.066673801
1.899901144,-1.074377347,3.857230031,0.780685774,3.475823101,-0.317649941,1756822665,-0.145673858
2.117648001,-0.308674115,8.188238937,1.235169459,3.468492753,-0.41783184,1756822665,-0.19161715
1.823330821,1.773081547,15.28056512,1.413542126,3.41718002,-0.472809694,1756822665,-0.216829923
1.079162993,2.610569457,18.53001821,1.209513224,3.34021121,-0.518013722,1756822665,-0.237560433
0.650847747,2.864208652,18.45344789,0.945619389,3.049439287,-0.483805251,1756822665,-0.221872472
0.471386052,2.931207685,19.53021806,0.71837752,2.46056511,-0.41783184,1756822666,-0.19161715
1.272981623,2.912065104,19.77667879,0.521678896,1.758070208,-0.30054568,1756822666,-0.137829866
0.815952507,1.129412267,19.20718701,0.326202055,0.83199842,0.136833813,1756822666,0.062751812
0.047856452,-0.382851616,20.64288057,0.131946891,0.646295405,0.021991149,1756822666,0.010085113
0.306281293,-1.823330821,21.15973025,-0.009773844,0.498466017,-0.004886922,1756822666,-0.002241136
0.914058233,-2.986242605,20.1691017,-0.140499005,0.331088942,0.012217305,1756822666,0.005602841
1.088734283,-4.149154388,18.59701725,-0.372627795,0.120951317,0.018325957,1756822666,0.008404261
0.921236701,-5.03449875,16.46022667,-0.555887367,0.006108652,0.092851516,1756822666,0.042581587
0.524028149,-5.355136979,14.03151173,-0.764803278,0.054977871,0.083077672,1756822666,0.038099315
0.014356936,-5.099104961,11.77747284,-0.891863213,0.136833813,0.018325957,1756822666,0.008404261
-0.567098956,-4.084548178,9.638289433,-0.886976326,0.206472451,-0.065973446,1756822666,-0.030255338
-0.990628556,-2.947957443,7.936992564,-0.803898671,0.196698607,-0.206472451,1756822666,-0.094688003
-1.208375413,-1.660618884,6.324230132,-0.609643508,0.175929189,-0.317649941,1756822666,-0.145673858
-1.311266785,-0.803988394,4.926821733,-0.530231009,0.112399204,-0.447153372,1756822666,-0.205063967
-1.217946703,-0.282353067,3.553341561,-0.390953752,-0.063529985,-0.502131226,1756822666,-0.230276741
-1.174875897,-0.076570323,2.665604376,-0.335975881,-0.149051118,-0.491135634,1756822666,-0.225234176
-1.153340493,0.105284194,1.854437515,-0.194255146,-0.260228591,-0.453261989,1756822666,-0.207865371
-1.155733316,0.244067905,1.060020412,-0.091629786,-0.320093385,-0.431270841,1756822666,-0.197780258
-0.978664443,0.200997098,0.117248307,0.023212879,-0.328645498,-0.356745317,1756822666,-0.163602948
-0.777667345,0.265603309,-0.753739119,0.211359372,-0.320093385,-0.298102236,1756822666,-0.136709306
-0.375673148,0.392422906,-0.916451056,0.322536846,-0.279776297,-0.232128791,1756822666,-0.106453968
0.133998066,0.600598473,0.411565487,0.437379493,-0.250454748,-0.125838239,1756822666,-0.057709256
0.540777908,0.909272588,2.780459861,0.422718727,-0.157603231,-0.059864793,1756822666,-0.027453918
0.71784678,1.861615983,5.958128274,0.372627795,-0.080634211,-0.02687807,1756822666,-0.012326249
0.705882667,2.694318248,8.609375715,0.370184317,0.057421332,0.031764992,1756822666,0.014567385
0.131605243,3.802195111,11.38265711,0.338419325,0.219911486,0.096516708,1756822666,0.044262439
-0.521635327,4.871786814,14.46221979,0.234572251,0.373849526,0.10262536,1756822666,0.047063859
-0.940379282,5.211567623,16.53201134,0.023212879,0.597426203,0.166155345,1756822666,0.07619863
-1.110269686,4.618147618,17.17089498,-0.112399204,0.637743326,0.180816111,1756822666,0.082922038
-1.409372511,1.591227029,16.24726545,-0.061086524,0.483805251,0.327423768,1756822666,0.150156123
-2.232503486,-0.600598473,16.51286876,0.454483755,0.184481302,0.285884914,1756822666,0.131106457
-2.026720742,-4.07736971,19.24786499,0.927293449,0.008552113,0.41661011,1756822666,0.191056866
-1.648654771,-5.240281494,21.19562259,1.480737268,-0.20402899,0.23090706,1756822666,0.105893684
-1.986042758,-4.163511324,22.67199414,1.541823791,-0.41783184,0.043982297,1756822666,0.020170225
-1.6199409,-3.409772205,23.28694954,1.450194006,-0.769690165,-0.146607657,1756822666,-0.067234085
-1.42612227,-2.452643165,21.00180396,1.001819026,-1.372003342,-0.30665435,1756822666,-0.140631294
-0.545563553,-2.050648968,18.06341781,0.596204472,-2.13436316,-0.298102236,1756822666,-0.136709306
0.571884601,-1.983649935,15.93141287,0.164933614,-2.863736272,-0.368962586,1756822666,-0.169205772
2.285145583,-2.225325018,13.90229931,-0.17837265,-3.48315371,-0.388510291,1756822666,-0.178170325
3.086741154,-2.081755662,11.66022453,-0.386066848,-4.01949332,-0.317649941,1756822666,-0.145673858
4.809573426,-0.887737185,9.401399995,-0.460592372,-4.273613224,-0.164933614,1756822666,-0.075638345
9.248259349,0.531206617,7.00379175,-0.805120401,-2.735454467,-0.12950343,1756822666,-0.059390108
6.910471669,1.095912751,4.500899311,-0.73792519,-3.26324212,0.096516708,1756822666,0.044262439
8.082954743,-0.89252283,2.574677118,-0.665843145,-2.829527696,0.216246294,1756822666,0.099170275
7.494320383,0.014356936,1.945364774,-0.588874125,-2.364048419,0.390953752,1756822666,0.179290893
7.274180704,-0.375673148,1.469193076,-0.408057962,-1.519832748,0.43493605,1756822666,0.199461118
7.056433847,-0.715453957,0.65324057,-0.309097793,-0.791681366,0.54611354,1756822666,0.250446974
6.70947457,-0.988235734,0.485742988,-0.162490153,0.054977871,0.6414085,1756822666,0.294149121
6.096911985,-0.995414202,0.327816696,0.020769418,0.748920782,0.762359817,1756822666,0.349617241
5.355136979,-0.839880733,0.177068872,0.062308254,1.573588923,0.811229036,1756822666,0.372028602
4.06779842,-0.875773072,0.284745889,0.144164196,2.825862662,0.774577139,1756822666,0.355220089
3.677768336,-0.823130974,0.399601374,0.155159771,3.053104338,0.784350948,1756822666,0.359702346
1.895115499,-0.693918554,0.602991295,0.277332818,3.499036015,0.719599251,1756822666,0.3300073
0.768096055,-0.327816696,1.244267752,0.395840674,3.545461825,0.464257581,1756822666,0.212907935
-0.133998066,-0.107677017,2.335394858,0.596204472,3.473379657,0.22968533,1756822666,0.1053334
-0.873380249,0.555134843,4.151547211,0.75747293,3.308446095,0.053756141,1756822666,0.024652498
-1.588834206,1.765903079,8.894121604,0.766024991,2.845410262,-0.02687807,1756822666,-0.012326249
-2.739781877,3.972085516,16.51286876,0.38362337,2.091602506,-0.167377075,1756822666,-0.076758913
-3.701696562,4.225724712,18.30509289,0.23090706,1.566258436,-0.133168622,1756822666,-0.06107096
-3.809373579,3.326023414,17.65185232,0.02687807,0.518013722,-0.202807259,1756822666,-0.093007151
-2.620140747,1.880758564,16.91486296,0.233350521,-0.934623797,-0.034208453,1756822666,-0.015687953
0.066999033,1.074377347,17.99641877,0.246789556,-1.220508746,0.02565634,1756822666,0.011765965
1.146162025,-0.244067905,18.27637902,0.322536846,-1.709200936,0.123394778,1756822666,0.056588688
0.882951539,-1.375872995,19.34118508,0.091629786,-1.681101136,-0.12950343,1756822666,-0.059390108
2.105683888,-2.136790582,19.2382937,0,-1.637118891,-0.342084533,1756822666,-0.156879531
3.373879866,-2.955135911,18.21895128,-0.087964594,-1.545489105,-0.349414916,1756822666,-0.160241235
3.759124305,-3.661018578,16.96032659,-0.241902634,-1.499063277,-0.388510291,1756822666,-0.178170325
3.57966261,-3.991228097,15.81895021,-0.514348513,-1.324355784,-0.437379493,1756822666,-0.200581678
3.46959277,-3.945764467,14.27797245,-0.665843145,-1.191187214,-0.425162223,1756822666,-0.194978854
3.227917687,-3.694518094,12.260823,-0.745255608,-0.960280154,-0.476474868,1756822666,-0.218510767
2.919243572,-2.943171798,9.841679354,-0.691499432,-0.654847535,-0.530231009,1756822666,-0.243163265
2.493321149,-2.127219291,8.291130309,-0.590095838,-0.529009279,-0.498466017,1756822666,-0.22859588
2.129612114,-1.069591702,6.163911018,-0.412944901,-0.342084533,-0.54611354,1756822666,-0.250446974
1.899901144,-0.390030084,4.864608346,-0.326202055,-0.208915911,-0.516792009,1756822666,-0.237000157
1.395015576,0.535992262,3.546163093,-0.122173048,-0.05253441,-0.393397231,1756822666,-0.180411469
1.143769203,0.799202748,3.04606317,-0.045204028,0.150272849,-0.366519143,1756822666,-0.168085212
0.813559684,0.973878798,2.266003002,0.036651914,0.618195586,-0.195476876,1756822666,-0.089645446
0.512064036,0.990628556,1.229910816,0.086742864,0.800233427,-0.073303829,1756822666,-0.033617043
0.196211453,1.115055332,-0.53359944,0.145385927,0.921184762,0.009773844,1756822666,0.004482272
0,1.646261949,-1.26101751,0.123394778,0.879645978,0.145385927,1756822666,0.066673801
0.765703232,2.629712037,3.830908983,0.089186325,0.801455158,0.333532438,1756822666,0.152957551
0.71784678,2.909672282,4.869393991,0.00122173,0.780685774,0.322536846,1756822666,0.147914987
0.483350165,3.538984625,8.831908217,-0.177150919,0.961501885,0.370184317,1756822666,0.169766056
0.306281293,3.962514226,11.49751259,-0.261450322,1.196074119,0.305432619,1756822666,0.14007101
0.160319114,4.089333823,13.68455245,-0.30054568,1.523497922,0.339641055,1756822666,0.155758955
-0.047856452,3.716053498,14.94556996,-0.408057962,1.668883883,0.406836231,1756822666,0.186574577
-0.736989361,1.938186306,15.18006657,-0.43493605,1.400103143,0.624304273,1756822666,0.286305144
-1.249053397,-0.394815729,14.97906948,-0.276111088,1.115439925,0.664621414,1756822666,0.304794534
-1.557727513,-2.790031152,15.81895021,0.221133216,0.895528457,0.7550294,1756822666,0.346255521
-1.284945736,-4.596612215,18.7932287,0.847880986,0.593761012,0.725707938,1756822666,0.332808736
-1.153340493,-5.747559885,20.54716767,1.279151826,0.135612083,0.533896218,1756822666,0.244844125
-1.43569356,-5.656632626,21.70768663,1.497841564,-0.290771853,0.301767445,1756822666,0.138390166
-1.787438482,-4.953142782,22.60738792,1.457524493,-0.719599251,0.05131268,1756822666,0.02353193
-1.598405497,-4.354937132,21.84886316,1.16675257,-1.123992073,-0.183259571,1756822666,-0.084042606
-0.849452023,-4.249652938,19.63071661,0.735481729,-1.765400573,-0.41661011,1756822666,-0.191056866
0.198604276,-4.266402696,17.41496288,0.30665435,-2.301740305,-0.60353489,1756822666,-0.276780332
1.797009773,-4.010370678,15.54377561,-0.023212879,-2.885727315,-0.75747293,1756822666,-0.347376121
3.139383251,-3.311666478,13.96929834,-0.240680904,-3.28278972,-0.73792519,1756822666,-0.338411552
4.476971085,-2.311466632,12.07657566,-0.403171057,-3.593109244,-0.575435072,1756822666,-0.263893791
5.223531736,-1.301695494,10.31306541,-0.405614518,-3.756821215,-0.411723171,1756822666,-0.188815722
6.005984726,-0.406779842,8.542376682,-0.395840674,-3.717725752,-0.240680904,1756822666,-0.110375956
11.02373372,1.808973886,11.1912313,-0.846659185,-3.67374363,-0.130725161,1756822666,-0.059950392
8.774480474,-0.021535403,5.163711171,-0.69882985,-3.108082367,0.092851516,1756822666,0.042581587
7.360322318,1.378265818,3.467199947,-0.448375102,-1.887573621,0.267558974,1756822666,0.122702205
7.374679253,1.636690658,2.69671107,-0.503352956,-1.425759501,0.332310707,1756822666,0.152397267
7.475177802,1.600798319,2.031506387,-0.524122392,-0.805120401,0.420275284,1756822666,0.19273771
7.16889651,1.529013641,1.402194044,-0.50701813,-0.168598806,0.469144485,1756822666,0.215149063
6.190232066,1.658226062,0.940379282,-0.508239896,0.38362337,0.598647916,1756822666,0.274539172
4.783252377,1.73958203,0.818345329,-0.572991628,0.83322022,0.706160198,1756822666,0.323844167
3.938586,1.727617917,1.026520895,-0.632856352,1.215621859,0.693942876,1756822666,0.318241319
3.206382284,1.560120335,0.959521863,-0.734260016,1.620014612,0.645073674,1756822666,0.295829965
2.581855585,1.390229931,0.906879765,-0.69882985,2.065946288,0.526565835,1756822666,0.241482421
1.883151386,1.203589768,0.909272588,-0.67928211,2.299296844,0.399505848,1756822666,0.183212873
1.189232832,1.074377347,1.043270654,-0.554665654,2.503325624,0.239459173,1756822666,0.109815672
0.969093153,0.222532502,1.631905013,-0.329867229,2.605951071,0.07819075,1756822666,0.035858178
0.574277424,0.224925324,2.912065104,0.015882496,2.62183362,-0.054977871,1756822666,-0.025212782
0.658026215,0.181854518,5.788237869,0.287106679,2.565634,-0.184481302,1756822666,-0.08460289
0.526420972,0.842273555,10.61216823,0.514348513,2.395813534,-0.268780705,1756822666,-0.123262489
0.095712904,1.399801221,14.79721496,0.548556984,2.246762276,-0.379958178,1756822666,-0.174248336
-0.279960244,1.150947671,15.36909956,0.599869646,1.970651328,-0.399505848,1756822666,-0.183212873
-0.370887503,0.705882667,14.78764367,0.715934059,1.576032367,-0.43493605,1756822666,-0.199461118
0.279960244,0.366101858,15.49113351,0.7550294,1.050688227,-0.51190507,1756822667,-0.234759013
1.603191142,0.473778875,16.83589981,0.788016192,0.395840674,-0.382401639,1756822667,-0.175368905
2.500499617,-0.409172665,17.80020732,0.67928211,-0.141720735,-0.287106679,1756822667,-0.131666757
2.179861389,-2.067398726,19.1210454,0.43493605,-0.135612083,-0.35918876,1756822667,-0.164723508
2.931207685,-2.93599333,19.49911137,0.184481302,-0.00122173,-0.454483755,1756822667,-0.208425671
3.751945837,-3.897908015,18.64248088,0.029321531,0.07574729,-0.49357913,1756822667,-0.22635476
3.797409466,-4.713860522,17.78585039,-0.157603231,0.045204028,-0.433714319,1756822667,-0.198900834
3.40498656,-5.230710204,16.6971161,-0.419053553,0.090408055,-0.428827397,1756822667,-0.196659698
2.825923491,-5.584847948,15.01496181,-0.596204472,0.223576677,-0.375071256,1756822667,-0.1720072
2.158325985,-5.27378101,12.88295688,-0.69882985,0.376292969,-0.339641055,1756822667,-0.155758955
1.56490598,-4.431507455,10.9902342,-0.6414085,0.496022573,-0.346971438,1756822667,-0.159120659
0.839880733,-2.928814862,9.351150721,-0.508239896,0.527787566,-0.411723171,1756822667,-0.188815722
0.315852583,-1.615155255,8.654839344,-0.448375102,0.482583538,-0.43493605,1756822667,-0.199461118
-0.24885355,-0.313459761,7.956135145,-0.355523586,0.400727579,-0.41783184,1756822667,-0.19161715
-0.626919521,0.622133876,6.8291157,-0.388510291,0.290771853,-0.453261989,1756822667,-0.207865371
-1.129412267,-1.428515092,-0.05503492,-0.483805251,0.498466017,-0.404392788,1756822667,-0.185454017
-0.038285162,0.729810893,6.441478439,-0.335975881,-0.106290551,-0.235793982,1756822667,-0.10813482
-0.914058233,1.552941867,4.587040924,-0.607200064,0.042760567,-0.389732022,1756822667,-0.178730609
-1.02173525,1.5457634,3.651447288,-0.551000445,-0.037873645,-0.202807259,1756822667,-0.093007151
-1.184447187,1.368694527,2.239681954,-0.471587964,-0.043982297,-0.277332818,1756822667,-0.127184477
-0.701097022,0.30388847,1.311266785,-0.295658793,0.045204028,-0.12705997,1756822667,-0.05826954
-0.46899323,-0.076570323,0.516849682,-0.10140363,0.120951317,-0.065973446,1756822667,-0.030255338
-0.524028149,0.425922423,0.425922423,0.079412481,0.07819075,0.015882496,1756822667,0.007283692
0.090927259,0.416351132,2.076970017,0.320093385,0.199142068,0.073303829,1756822667,0.033617043
0.313459761,1.115055332,4.333401729,0.323758559,0.419053553,0.166155345,1756822667,0.07619863
-0.143569356,2.737389054,6.671189409,0.304210889,0.482583538,0.10384709,1756822667,0.047624143
-0.70827549,4.130011808,9.303294269,0.125838239,0.472809694,0.10262536,1756822667,0.047063859
-1.342373479,4.424328987,12.35175026,-0.048869219,0.51190507,0.094073247,1756822667,0.043141871
-1.526620819,4.589433747,14.6105748,-0.145385927,0.568104654,0.125838239,1756822667,0.057709256
-1.466800254,3.656232933,15.45045553,-0.197920337,0.482583538,0.207694181,1756822667,0.095248287
-1.629512191,1.727617917,14.68235947,-0.118507856,0.219911486,0.370184317,1756822667,0.169766056
-1.808973886,-0.8470592,14.09611794,0.213802833,-0.030543262,0.43615778,1756822667,0.200021402
-1.61036961,-3.366701398,14.90249915,0.751364226,-0.151494579,0.322536846,1756822667,0.147914987
-1.311266785,-4.857429878,16.52004723,1.309695088,-0.262672052,0.140499005,1756822667,0.064432665
-1.088734283,-4.967499718,18.7932287,1.591914793,-0.43493605,-0.05253441,1756822667,-0.024092214
-1.26101751,-5.070391089,21.14537332,1.678657675,-0.574213359,-0.284663184,1756822667,-0.130546174
-1.079162993,-4.24247447,20.79362839,1.442863658,-0.899193631,-0.450818546,1756822667,-0.206744811
-0.557527666,-4.063012775,19.84846347,1.094670524,-1.351233872,-0.565661211,1756822667,-0.259411511
0.54317073,-4.170689792,18.50848281,0.713490616,-1.958433936,-0.761138104,1756822667,-0.349056965
1.823330821,-4.055834307,17.05843232,0.329867229,-2.526538538,-0.842994011,1756822667,-0.38659598
3.215953574,-3.775874063,15.5533469,0.019547688,-3.105638906,-0.855211333,1756822667,-0.392198828
4.560719876,-3.168097122,13.83290745,-0.195476876,-3.56989633,-0.744033878,1756822667,-0.341212989
5.580062303,-2.08893413,11.77747284,-0.35918876,-3.949854595,-0.56321775,1756822667,-0.258290943
6.128018679,-0.784845813,9.566504755,-0.461814103,-4.081801434,-0.365297412,1756822667,-0.167524928
6.367300939,0.315852583,7.456035222,-0.518013722,-3.996280406,-0.163711884,1756822667,-0.075078061
6.549155456,1.225125171,5.534598674,-0.58398715,-3.682295586,0.100181899,1756822667,0.045943291
6.508477472,0.863808959,3.797409466,-0.527787566,-3.144734124,0.327423768,1756822667,0.150156123
7.135396993,1.02173525,2.467000101,-0.474031425,-2.350609314,0.483805251,1756822667,0.221872472
7.056433847,1.091127106,1.928615016,-0.427605667,-1.849699994,0.500909513,1756822667,0.229716465
7.111468767,1.060020412,1.682154288,-0.372627795,-1.215621859,0.524122392,1756822667,0.240361861
6.704688925,1.150947671,1.44526485,-0.353080108,-0.552222158,0.618195586,1756822667,0.283503708
