acc_x,acc_y,acc_z,gyro_x,gyro_y,gyro_z,timestamp
1.9932212257999997,-0.9140582331999999,9.942177903,-0.013439035240356337,-0.047647488579445195,-0.07452555906015787,1756822325.194015
1.9932212257999997,-0.9188438783999999,9.8847501606,0.007330382858376184,-0.04520402762665313,-0.007330382858376184,1756822325.202104
1.9645073545999998,-0.9188438783999999,9.8177511278,0.004886921905584123,-0.048869219055841226,-0.03665191429188092,1756822325.210093
1.9477575963999998,-0.8973084749999999,9.7770731436,-0.02199114857512855,-0.040317105721069016,0.01832595714594046,1756822325.218079
2.0099709839999997,-0.849452023,9.762716207999999,-0.05253441048502932,-0.03298672286269283,-0.039095375244672985,1756822325.226090
2.0434705004,-0.873380249,9.7914300792,-0.04153883619746504,-0.009773843811168246,0.009773843811168246,1756822325.234065
2.0769700168,-0.8757730715999998,9.8799645154,-0.047647488579445195,0.035430183815484885,0.035430183815484885,1756822325.242072
2.0482561456,-0.8422735552,9.9804630646,-0.03298672286269283,0.06475171524898962,0.019547687622336492,1756822325.250090
1.9836499354,-0.7561319416,10.073783145999998,-0.059864793343405505,0.1075122819228507,0.023212879051524585,1756822325.258084
1.9357934833999997,-0.7250252477999999,10.1886386308,-0.0317649923862968,0.11484266478122689,-0.012217304763960306,1756822325.266076
1.8592231602,-0.6340979889999999,10.229316614999998,-0.029321531433504737,0.14782938764391973,-0.009773843811168246,1756822325.274147
1.7659030788,-0.5742774239999999,10.2149596794,-0.023212879051524585,0.14416419621473162,0.013439035240356337,1756822325.282084
1.6773686425999998,-0.5527420206,10.1312108884,-0.019547687622336492,0.1075122819228507,0.006108652381980153,1756822325.290094
1.5577275126,-0.5670989562,10.0642118556,-0.05619960191421741,0.07452555906015787,0.0024434609527920616,1756822325.298076
1.495514125,-0.5455635528,9.9924271776,-0.0317649923862968,0.047647488579445195,0.004886921905584123,1756822325.306106
1.423729447,-0.5455635528,9.9086783866,-0.04276056667386108,0.04642575810304917,-0.012217304763960306,1756822325.314083
1.411765334,-0.5072783912,9.7794659662,-0.02199114857512855,-0.010995574287564275,0.003665191429188092,1756822325.322068
1.4285150921999998,-0.5527420206,9.774680320999998,0.0024434609527920616,-0.04642575810304917,0.012217304763960306,1756822325.330110
1.4883356571999997,-0.5599204884,9.7459664498,-0.012217304763960306,-0.059864793343405505,0.0,1756822325.338114
1.5290136414,-0.5670989562,9.8057870148,0.0012217304763960308,-0.08918632477691024,0.003665191429188092,1756822325.346074
1.6175480776,-0.5838487144,9.8177511278,0.03298672286269283,-0.079412480965742,-0.03298672286269283,1756822325.354065
1.6725829974,-0.490528633,9.9110712092,0.02076941809873252,-0.07330382858376185,-0.05009094953223726,1756822325.362128
1.7204394494,-0.418743955,9.930213789999998,0.04642575810304917,-0.07086036763096977,-0.02199114857512855,1756822325.370066
1.6941184007999999,-0.3421736318,9.942177903,0.009773843811168246,-0.059864793343405505,-0.039095375244672985,1756822325.378086
1.6965112234,-0.2799602442,9.901499918799999,-0.0158824961931484,-0.04276056667386108,-0.03298672286269283,1756822325.386073
1.6606188843999998,-0.23928226,9.8249295956,-0.012217304763960306,-0.06597344572538566,-0.06475171524898962,1756822325.394073
1.6534404165999999,-0.24167508259999998,9.7914300792,-0.05131268000863329,-0.05253441048502932,0.006108652381980153,1756822325.402099
1.6319050132,-0.2656033086,9.731609514199999,-0.02076941809873252,-0.05253441048502932,-0.02199114857512855,1756822325.410070
1.6151552550000001,-0.2536391956,9.767501853199999,-0.025656340004316644,-0.05375614096142535,-0.0439822971502571,1756822325.418063
1.5864413838,-0.2656033086,9.8153583052,-0.009773843811168246,-0.05619960191421741,-0.012217304763960306,1756822325.426060
1.6079767872,-0.2895315346,9.8153583052,-0.0158824961931484,-0.03420845333908886,-0.05253441048502932,1756822325.434054
1.6151552550000001,-0.32542387359999997,9.8680004024,0.013439035240356337,-0.07696902001294993,0.0024434609527920616,1756822325.442046
1.6438691261999998,-0.4259224228,9.9206424996,0.030543261909900768,-0.058643062867009474,-0.0158824961931484,1756822325.450054
1.7156538041999998,-0.5527420206,9.9756774194,0.014660765716752368,-0.05619960191421741,-0.0317649923862968,1756822325.458055
1.7539389658,-0.6317051664,10.0546405652,0.05253441048502932,-0.04276056667386108,-0.03787364476827695,1756822325.466056
1.7802600144,-0.7034898444,10.078568791199999,0.04520402762665313,-0.0439822971502571,-0.039095375244672985,1756822325.474087
1.7491533205999998,-0.7393821834,10.073783145999998,0.04276056667386108,-0.05375614096142535,-0.007330382858376184,1756822325.482058
1.746760498,-0.7561319416,10.078568791199999,0.059864793343405505,-0.07330382858376185,-0.003665191429188092,1756822325.490055
1.746760498,-0.8063812161999999,10.1120683076,0.0158824961931484,-0.059864793343405505,-0.023212879051524585,1756822325.498055
1.7300107398,-0.861416136,10.085747258999998,0.059864793343405505,-0.08307767239493008,-0.009773843811168246,1756822325.506097
1.7156538041999998,-0.8662017812,10.042676452199998,0.029321531433504737,-0.06963863715457375,-0.007330382858376184,1756822325.514087
1.746760498,-0.8805587167999999,9.9924271776,0.025656340004316644,-0.09407324668249435,-0.013439035240356337,1756822325.522057
1.7443676754,-0.873380249,10.021141048799999,0.047647488579445195,-0.09529497715889039,-0.029321531433504737,1756822325.530058
1.7682959014,-0.8207381518,9.990034354999999,0.035430183815484885,-0.10262536001726658,0.0,1756822325.538060
1.7994025952000001,-0.7704888771999999,9.999605645399999,0.04276056667386108,-0.11239920382843482,-0.0158824961931484,1756822325.546054
1.8472590472,-0.7417750059999999,9.9876415324,0.029321531433504737,-0.14538592669112765,-0.029321531433504737,1756822325.554080
1.8783657409999999,-0.7274180704000001,9.918249676999999,0.012217304763960306,-0.1392772743091475,-0.012217304763960306,1756822325.562093
1.9764714676,-0.7202396025999999,9.839286531199999,0.008552113334772215,-0.11606439525762292,0.023212879051524585,1756822325.570074
1.9956140484,-0.7609175867999999,9.774680320999998,-0.02199114857512855,-0.11850785621041497,0.0012217304763960308,1756822325.578093
2.0961125976,-0.7848458128,9.762716207999999,-0.008552113334772215,-0.10262536001726658,-0.010995574287564275,1756822325.586059
2.1559331626,-0.8015955709999999,9.7770731436,-0.019547687622336492,-0.10018189906447451,0.003665191429188092,1756822325.594057
2.129612114,-0.7202396025999999,9.8010013696,-0.019547687622336492,-0.05619960191421741,0.003665191429188092,1756822325.602081
2.1439690496,-0.7034898444,9.851250644199999,0.013439035240356337,-0.01710422666954443,0.029321531433504737,1756822325.610078
2.1200408235999997,-0.6364908116,9.9349994352,-0.0158824961931484,0.009773843811168246,0.013439035240356337,1756822325.618084
2.0769700168,-0.6173482307999999,9.978070242,-0.012217304763960306,0.04276056667386108,0.013439035240356337,1756822325.626056
2.0434705004,-0.5599204884,10.0283195166,-0.008552113334772215,0.059864793343405505,-0.019547687622336492,1756822325.634129
1.9812571127999998,-0.48574298779999997,10.0522477426,0.007330382858376184,0.06597344572538566,-0.009773843811168246,1756822325.642101
1.8783657409999999,-0.4642075844,10.042676452199998,0.009773843811168246,0.06475171524898962,-0.012217304763960306,1756822325.650077
1.8041882403999998,-0.48335016519999996,9.949356370799999,-0.019547687622336492,0.06475171524898962,-0.025656340004316644,1756822325.658059
1.7276179172,-0.5192425042,9.8560362894,-0.019547687622336492,0.02199114857512855,-0.012217304763960306,1756822325.666056
1.722832272,-0.5431707302,9.8057870148,0.0024434609527920616,-0.029321531433504737,-0.039095375244672985,1756822325.674440
1.698904046,-0.5647061336,9.7579305628,-0.0317649923862968,-0.030543261909900768,0.0,1756822325.682056
1.698904046,-0.5934200048,9.7196454012,0.006108652381980153,-0.03298672286269283,0.05131268000863329,1756822325.690067
1.7347963849999999,-0.6077769404,9.7722874984,-0.02199114857512855,-0.02076941809873252,0.035430183815484885,1756822325.698065
1.7706887239999998,-0.6029912951999999,9.7842516114,-0.009773843811168246,-0.02076941809873252,0.03298672286269283,1756822325.706098
1.8209379985999998,-0.5647061336,9.8440721764,0.003665191429188092,-0.0012217304763960308,0.006108652381980153,1756822325.714095
1.8544375149999999,-0.5431707302,9.913464031799998,-0.02199114857512855,-0.004886921905584123,-0.03665191429188092,1756822325.722084
1.8305092889999999,-0.4881358104,9.9804630646,0.006108652381980153,0.026878070480712675,-0.019547687622336492,1756822325.730067
1.8496518698,-0.4163511324,10.033105161799998,-0.007330382858376184,0.028099800957108706,-0.05131268000863329,1756822325.738111
1.8041882403999998,-0.36610185779999993,10.0402836296,-0.0158824961931484,0.0024434609527920616,-0.048869219055841226,1756822325.746090
1.7635102561999998,-0.31345976059999997,10.021141048799999,0.012217304763960306,-0.01710422666954443,0.0,1756822325.754068
1.7036896912,-0.2656033086,9.9326066126,-0.026878070480712675,-0.03665191429188092,-0.013439035240356337,1756822325.762075
1.6366906583999998,-0.29910282499999996,9.877571692799998,0.0,-0.039095375244672985,-0.01710422666954443,1756822325.770086
1.6127624323999998,-0.29910282499999996,9.8321080634,-0.013439035240356337,-0.04276056667386108,-0.028099800957108706,1756822325.778104
1.651047594,-0.334995164,9.8177511278,-0.0158824961931484,-0.05009094953223726,-0.023212879051524585,1756822325.786072
1.67497582,-0.37328032559999996,9.7603233854,0.013439035240356337,-0.08307767239493008,-0.0317649923862968,1756822325.794111
1.7419748528,-0.44267218099999994,9.8010013696,0.007330382858376184,-0.05742133239061344,-0.035430183815484885,1756822325.802082
1.7946169499999998,-0.48335016519999996,9.894321451,0.059864793343405505,-0.08674286382411818,-0.047647488579445195,1756822325.810062
1.8711872732,-0.5216353268,9.999605645399999,0.013439035240356337,-0.08307767239493008,-0.061086523819801536,1756822325.818149
1.9214365477999997,-0.6077769404,9.997212822799998,0.040317105721069016,-0.06719517620178168,-0.06475171524898962,1756822325.826096
1.9310078382,-0.6340979889999999,10.033105161799998,0.05253441048502932,-0.09529497715889039,-0.03298672286269283,1756822325.834099
1.9836499354,-0.7250252477999999,10.0713903234,0.03420845333908886,-0.058643062867009474,-0.035430183815484885,1756822325.842204
1.9836499354,-0.7585247641999999,10.0402836296,0.08918632477691024,-0.06597344572538566,-0.058643062867009474,1756822325.850086
1.9836499354,-0.7633104094,10.0474620974,0.05253441048502932,-0.04520402762665313,-0.039095375244672985,1756822325.858087
1.962114532,-0.7034898444,10.0187482262,0.08552113334772216,-0.04642575810304917,-0.06475171524898962,1756822325.866129
1.926222193,-0.705882667,10.021141048799999,0.05009094953223726,-0.07330382858376185,-0.0158824961931484,1756822325.874203
1.9453647737999997,-0.6747759731999999,9.961320483799998,0.03665191429188092,-0.059864793343405505,-0.013439035240356337,1756822325.882132
1.9166509026,-0.7082754896,9.9349994352,0.048869219055841226,-0.08185594191853406,-0.04642575810304917,1756822325.890166
1.8831513862,-0.7154539573999998,9.927820967399999,-0.006108652381980153,-0.08307767239493008,-0.003665191429188092,1756822325.898093
1.9669001771999999,-0.7010970218,9.894321451,0.04276056667386108,-0.0916297857297023,-0.06841690667817772,1756822325.906099
1.9310078382,-0.6891329088,9.829715240799999,0.030543261909900768,-0.0916297857297023,0.006108652381980153,1756822325.914089
1.9190437251999999,-0.6556333924,9.9038927414,0.01710422666954443,-0.058643062867009474,-0.013439035240356337,1756822325.922136
1.9549360641999998,-0.6221338759999999,9.8919286284,0.040317105721069016,-0.07696902001294993,-0.009773843811168246,1756822325.930094
1.9477575963999998,-0.6364908116,9.846464998999998,0.0012217304763960308,-0.05375614096142535,-0.01710422666954443,1756822325.938146
1.9310078382,-0.6723831506,9.8249295956,0.040317105721069016,-0.04520402762665313,-0.029321531433504737,1756822325.946111
1.9166509026,-0.7274180704000001,9.829715240799999,-0.006108652381980153,-0.030543261909900768,-0.02076941809873252,1756822325.954104
1.9310078382,-0.7274180704000001,9.8057870148,0.040317105721069016,-0.04642575810304917,-0.04276056667386108,1756822325.962081
1.938186306,-0.7154539573999998,9.8273224182,0.03298672286269283,-0.05009094953223726,0.008552113334772215,1756822325.970095
1.9716858224,-0.6484549246,9.846464998999998,0.0,-0.03787364476827695,-0.0158824961931484,1756822325.978103
1.9956140484,-0.6149554081999999,9.829715240799999,0.026878070480712675,-0.05619960191421741,-0.006108652381980153,1756822325.986150
2.0362920326,-0.5551348432,9.834500885999999,0.023212879051524585,-0.06597344572538566,0.010995574287564275,1756822325.994073
2.0721843715999997,-0.5192425042,9.8560362894,-0.023212879051524585,-0.04642575810304917,-0.009773843811168246,1756822326.002081
2.0841484845999996,-0.49770710079999997,9.913464031799998,0.003665191429188092,-0.029321531433504737,-0.0012217304763960308,1756822326.010104
2.093719775,-0.4881358104,9.9684989516,-0.03665191429188092,0.013439035240356337,-0.02199114857512855,1756822326.018132
2.0793628394,-0.490528633,9.9876415324,-0.007330382858376184,0.003665191429188092,0.019547687622336492,1756822326.026099
2.0554346134,-0.5144568589999999,9.997212822799998,-0.009773843811168246,0.03298672286269283,0.0,1756822326.034090
1.9932212257999997,-0.5359922624,9.9708917742,-0.04276056667386108,0.03787364476827695,0.03298672286269283,1756822326.042109
1.9645073545999998,-0.5694917787999999,9.927820967399999,0.0024434609527920616,0.039095375244672985,-0.007330382858376184,1756822326.050115
1.91425808,-0.5886343596,9.870393224999999,-0.03298672286269283,0.009773843811168246,0.0158824961931484,1756822326.058080
1.9166509026,-0.5886343596,9.8560362894,-0.01710422666954443,0.008552113334772215,0.003665191429188092,1756822326.066075
1.9190437251999999,-0.5814558917999999,9.8632147572,-0.025656340004316644,-0.007330382858376184,0.02199114857512855,1756822326.074138
1.902293967,-0.5790630692,9.848857821600001,-0.04642575810304917,0.0024434609527920616,0.01710422666954443,1756822326.082113
1.9070796122,-0.5455635528,9.8321080634,-0.003665191429188092,-0.007330382858376184,0.013439035240356337,1756822326.090103
1.9238293703999998,-0.5240281494,9.8057870148,-0.059864793343405505,-0.006108652381980153,-0.025656340004316644,1756822326.098063
1.8759729183999998,-0.5359922624,9.798608546999999,-0.023212879051524585,-0.004886921905584123,-0.03298672286269283,1756822326.106110
1.9118652573999997,-0.5240281494,9.8057870148,-0.025656340004316644,0.019547687622336492,-0.006108652381980153,1756822326.114109
1.9310078382,-0.550349198,9.8847501606,-0.0158824961931484,0.008552113334772215,-0.007330382858376184,1756822326.122098
1.9286150156,-0.5168496816,9.887142983199999,0.009773843811168246,0.006108652381980153,-0.025656340004316644,1756822326.130085
1.9118652573999997,-0.5312066172,9.9445707256,-0.02199114857512855,0.03420845333908886,-0.007330382858376184,1756822326.138109
1.9238293703999998,-0.5168496816,9.978070242,0.007330382858376184,0.008552113334772215,-0.05497787143782138,1756822326.146080
1.8831513862,-0.5264209719999999,9.978070242,-0.006108652381980153,0.009773843811168246,0.0,1756822326.154085
1.8664016279999998,-0.5144568589999999,10.0283195166,0.0158824961931484,0.0,-0.028099800957108706,1756822326.162114
1.8664016279999998,-0.4881358104,10.0594262104,0.03420845333908886,-0.013439035240356337,-0.003665191429188092,1756822326.170100
1.8305092889999999,-0.4211367776,10.0761759686,0.019547687622336492,-0.003665191429188092,-0.03665191429188092,1756822326.178097
1.8113667082,-0.38045879339999994,10.009176935799998,0.01710422666954443,-0.003665191429188092,-0.04276056667386108,1756822326.186072
1.7826528369999999,-0.406779842,9.9517491934,0.009773843811168246,-0.013439035240356337,-0.03298672286269283,1756822326.194120
1.7730815465999998,-0.39720855159999996,9.8727860476,0.019547687622336492,-0.007330382858376184,-0.035430183815484885,1756822326.202105
1.7659030788,-0.4474578262,9.846464998999998,0.009773843811168246,-0.04520402762665313,-0.04153883619746504,1756822326.210110
1.7778671918,-0.46899322959999995,9.822536773,-0.007330382858376184,-0.029321531433504737,-0.04642575810304917,1756822326.218094
1.8041882403999998,-0.5216353268,9.8201439504,0.023212879051524585,-0.026878070480712675,-0.0317649923862968,1756822326.226122
1.8161523534,-0.5383850849999999,9.8919286284,0.019547687622336492,-0.05009094953223726,-0.023212879051524585,1756822326.234085
1.8592231602,-0.5359922624,9.9086783866,0.029321531433504737,-0.05375614096142535,-0.04153883619746504,1756822326.242097
1.8759729183999998,-0.550349198,9.966106128999998,0.05619960191421741,-0.05619960191421741,-0.02076941809873252,1756822326.250129
1.8735800958,-0.5670989562,9.9684989516,0.02076941809873252,-0.048869219055841226,-0.04276056667386108,1756822326.258084
1.938186306,-0.6101697629999999,10.0283195166,0.039095375244672985,-0.04276056667386108,-0.04153883619746504,1756822326.266114
1.9405791286,-0.6628118601999999,9.966106128999998,0.009773843811168246,-0.04642575810304917,-0.05131268000863329,1756822326.274142
1.9453647737999997,-0.7082754896,9.961320483799998,0.04642575810304917,-0.05375614096142535,-0.05497787143782138,1756822326.282097
1.9357934833999997,-0.7250252477999999,9.930213789999998,0.059864793343405505,-0.03420845333908886,-0.009773843811168246,1756822326.290088
1.9525432416,-0.7010970218,9.9565348386,0.05619960191421741,-0.05009094953223726,-0.04276056667386108,1756822326.298135
1.9764714676,-0.6484549246,9.994820000199999,0.06963863715457375,-0.05619960191421741,-0.047647488579445195,1756822326.306074
1.9118652573999997,-0.6149554081999999,9.978070242,0.04276056667386108,-0.04642575810304917,-0.05253441048502932,1756822326.314097
1.9310078382,-0.6149554081999999,9.9397850804,0.026878070480712675,-0.05619960191421741,-0.01832595714594046,1756822326.322102
1.9166509026,-0.6460621019999999,9.8368937086,0.04276056667386108,-0.07208209810736581,-0.03787364476827695,1756822326.330130
1.9310078382,-0.71784678,9.8010013696,0.02199114857512855,-0.06597344572538566,-0.0158824961931484,1756822326.338082
1.950150419,-0.7322037155999999,9.812965482600001,0.029321531433504737,-0.0757472895365539,-0.04642575810304917,1756822326.346090
1.9453647737999997,-0.7561319416,9.798608546999999,0.01710422666954443,-0.09285151620609834,-0.019547687622336492,1756822326.354170
1.9477575963999998,-0.7274180704000001,9.8010013696,0.006108652381980153,-0.05619960191421741,-0.019547687622336492,1756822326.362083
1.9836499354,-0.7106683122,9.7340023368,0.01710422666954443,-0.06841690667817772,-0.01710422666954443,1756822326.370098
1.9980068709999999,-0.6843472636,9.7220382238,0.0012217304763960308,-0.05742133239061344,-0.019547687622336492,1756822326.378153
2.0434705004,-0.6987041992,9.676574594399998,-0.039095375244672985,-0.0439822971502571,-0.012217304763960306,1756822326.386106
2.069791549,-0.7226324252,9.7196454012,0.003665191429188092,-0.026878070480712675,-0.026878070480712675,1756822326.394124
2.0913269523999998,-0.7441678285999999,9.7435736272,-0.01710422666954443,-0.003665191429188092,0.028099800957108706,1756822326.402105
2.1343977592,-0.7202396025999999,9.767501853199999,0.003665191429188092,0.012217304763960306,-0.003665191429188092,1756822326.410068
2.1032910653999997,-0.6460621019999999,9.834500885999999,0.009773843811168246,0.019547687622336492,0.03298672286269283,1756822326.418168
2.0769700168,-0.5934200048,9.9373922578,0.0024434609527920616,0.04520402762665313,0.0317649923862968,1756822326.426093
2.0889341298,-0.5264209719999999,10.025926693999999,-0.003665191429188092,0.05619960191421741,0.0158824961931484,1756822326.434112
2.0626130812,-0.49770710079999997,10.083354436399999,0.0,0.03298672286269283,0.04276056667386108,1756822326.442069
1.9764714676,-0.47377887479999997,10.1240324206,-0.02199114857512855,0.058643062867009474,0.0,1756822326.450112
1.9549360641999998,-0.4881358104,10.1048898398,-0.04153883619746504,0.04153883619746504,0.035430183815484885,1756822326.458095
1.8999011443999998,-0.5240281494,10.0522477426,-0.03665191429188092,0.019547687622336492,-0.007330382858376184,1756822326.466057
1.8903298539999998,-0.5766702466,9.9708917742,-0.03665191429188092,-0.02199114857512855,0.029321531433504737,1756822326.474185
1.8735800958,-0.6029912951999999,9.949356370799999,-0.03665191429188092,-0.03665191429188092,-0.010995574287564275,1756822326.482109
1.8855442087999998,-0.6317051664,9.9038927414,0.006108652381980153,-0.05497787143782138,0.03665191429188092,1756822326.490074
1.926222193,-0.6101697629999999,9.8847501606,0.003665191429188092,-0.059864793343405505,-0.023212879051524585,1756822326.498098
1.9214365477999997,-0.5718846014,9.9158568544,0.047647488579445195,-0.06230825429619756,-0.035430183815484885,1756822326.506078
1.9645073545999998,-0.5072783912,9.894321451,0.029321531433504737,-0.05009094953223726,-0.040317105721069016,1756822326.514106
1.938186306,-0.45463629399999994,9.8727860476,0.01710422666954443,-0.026878070480712675,-0.05497787143782138,1756822326.522071
1.9238293703999998,-0.3493520996,9.8440721764,0.04276056667386108,-0.05375614096142535,0.003665191429188092,1756822326.530115
1.9070796122,-0.2967100024,9.8057870148,0.006108652381980153,0.012217304763960306,-0.061086523819801536,1756822326.538066
1.8424734019999998,-0.2895315346,9.7962157244,0.013439035240356337,0.006108652381980153,-0.035430183815484885,1756822326.546070
1.8329021115999997,-0.2799602442,9.803394192199999,-0.035430183815484885,-0.009773843811168246,-0.058643062867009474,1756822326.554162
1.8041882403999998,-0.2703889538,9.8201439504,-0.02199114857512855,0.013439035240356337,-0.061086523819801536,1756822326.562070
1.7850456595999997,-0.3038884702,9.858429112,0.01710422666954443,0.0,-0.025656340004316644,1756822326.570065
1.7515461431999997,-0.3517449222,9.8680004024,0.0,0.004886921905584123,-0.04153883619746504,1756822326.578095
1.8017954178,-0.38524443859999996,9.923035322199999,0.02076941809873252,-0.004886921905584123,-0.058643062867009474,1756822326.586116
1.8017954178,-0.39960137419999997,10.004391290600001,0.007330382858376184,-0.010995574287564275,-0.05131268000863329,1756822326.594078
1.7970097725999998,-0.47377887479999997,10.061819032999999,0.009773843811168246,-0.029321531433504737,-0.01832595714594046,1756822326.602071
1.8376877567999998,-0.5599204884,10.0163554036,0.048869219055841226,-0.040317105721069016,-0.03787364476827695,1756822326.610082
1.8664016279999998,-0.6987041992,10.0187482262,0.029321531433504737,-0.03665191429188092,-0.0317649923862968,1756822326.618125
1.8879370314,-0.7680960546,10.0283195166,0.05009094953223726,-0.05742133239061344,-0.035430183815484885,1756822326.626116
1.9310078382,-0.7465606511999999,9.978070242,0.040317105721069016,-0.08185594191853406,-0.061086523819801536,1756822326.634086
1.9597217094000001,-0.7082754896,9.958927661199999,0.06230825429619756,-0.06963863715457375,-0.05253441048502932,1756822326.642103
1.9932212257999997,-0.6771687958,9.9349994352,0.06597344572538566,-0.08552113334772216,-0.03787364476827695,1756822326.650124
2.021935097,-0.6771687958,9.9326066126,0.05253441048502932,-0.079412480965742,-0.029321531433504737,1756822326.658085
2.069791549,-0.7010970218,9.961320483799998,0.03665191429188092,-0.08552113334772216,-0.030543261909900768,1756822326.666113
2.0913269523999998,-0.7154539573999998,9.913464031799998,0.02199114857512855,-0.07330382858376185,-0.04276056667386108,1756822326.674090
2.1559331626,-0.7441678285999999,9.9373922578,0.007330382858376184,-0.06475171524898962,-0.029321531433504737,1756822326.682095
2.1272192914,-0.7250252477999999,9.949356370799999,0.026878070480712675,-0.05375614096142535,-0.024434609527920613,1756822326.690083
2.1152551784,-0.7250252477999999,9.923035322199999,-0.009773843811168246,-0.03298672286269283,-0.019547687622336492,1756822326.698081
2.0841484845999996,-0.7226324252,9.8680004024,-0.009773843811168246,-0.028099800957108706,-0.01710422666954443,1756822326.706129
2.0386848551999996,-0.7274180704000001,9.846464998999998,0.014660765716752368,-0.025656340004316644,-0.01710422666954443,1756822326.714255
2.0195422744,-0.6747759731999999,9.753144917599998,-0.02076941809873252,-0.01710422666954443,-0.01832595714594046,1756822326.722132
1.9740786449999999,-0.6843472636,9.6933243526,-0.012217304763960306,-0.030543261909900768,-0.0158824961931484,1756822326.730085
1.9788642901999998,-0.7106683122,9.6454679006,-0.013439035240356337,-0.010995574287564275,0.025656340004316644,1756822326.738140
1.9740786449999999,-0.693918554,9.6239324972,-0.0024434609527920616,0.004886921905584123,-0.019547687622336492,1756822326.746105
1.9956140484,-0.6173482307999999,9.690931529999999,-0.009773843811168246,-0.012217304763960306,0.01710422666954443,1756822326.754081
2.0243279195999997,-0.5718846014,9.7938229018,-0.023212879051524585,0.006108652381980153,0.010995574287564275,1756822326.762099
2.0578274359999997,-0.5312066172,9.8321080634,0.009773843811168246,0.026878070480712675,0.023212879051524585,1756822326.770174
2.0650059038,-0.5264209719999999,9.925428144799998,-0.023212879051524585,0.01832595714594046,-0.026878070480712675,1756822326.778500
2.0147566292,-0.5335994398,9.9326066126,-0.019547687622336492,0.025656340004316644,-0.01832595714594046,1756822326.786089
2.0027925162,-0.5288137946,9.994820000199999,-0.040317105721069016,0.047647488579445195,0.04276056667386108,1756822326.794127
1.962114532,-0.5312066172,10.033105161799998,-0.04276056667386108,0.04276056667386108,0.008552113334772215,1756822326.802131
1.9166509026,-0.5383850849999999,10.061819032999999,-0.023212879051524585,0.03298672286269283,0.029321531433504737,1756822326.810070
1.8616159827999998,-0.5862415369999999,10.033105161799998,-0.04520402762665313,0.03665191429188092,0.008552113334772215,1756822326.818132
1.8352949342,-0.6771687958,9.9924271776,-0.03665191429188092,0.014660765716752368,-0.003665191429188092,1756822326.826087
1.8185451759999998,-0.7034898444,9.930213789999998,-0.013439035240356337,-0.03298672286269283,0.006108652381980153,1756822326.834111
1.8400805794,-0.7369893607999999,9.901499918799999,-0.0012217304763960308,-0.04642575810304917,0.013439035240356337,1756822326.842128
1.8855442087999998,-0.7393821834,9.8919286284,0.025656340004316644,-0.0635299847725936,-0.004886921905584123,1756822326.850086
1.9190437251999999,-0.6604190376,9.9565348386,0.0439822971502571,-0.07696902001294993,-0.02076941809873252,1756822326.858109
1.9597217094000001,-0.6101697629999999,9.9158568544,0.035430183815484885,-0.06719517620178168,-0.019547687622336492,1756822326.866108
2.0171494518,-0.45463629399999994,9.9038927414,0.03420845333908886,-0.0635299847725936,-0.05742133239061344,1756822326.874088
2.0506489682,-0.3565305674,9.9038927414,0.023212879051524585,-0.059864793343405505,-0.05253441048502932,1756822326.882152
2.0147566292,-0.2967100024,9.9349994352,0.030543261909900768,-0.05375614096142535,-0.05009094953223726,1756822326.890108
2.0171494518,-0.2967100024,9.870393224999999,0.012217304763960306,-0.047647488579445195,-0.06841690667817772,1756822326.898119
1.9932212257999997,-0.2440679052,9.8560362894,-0.003665191429188092,-0.040317105721069016,-0.02199114857512855,1756822326.906085
1.9573288867999998,-0.2009970984,9.8057870148,-0.009773843811168246,-0.007330382858376184,-0.07696902001294993,1756822326.914129
1.9166509026,-0.2440679052,9.8321080634,0.010995574287564275,-0.03665191429188092,0.0024434609527920616,1756822326.922122
1.926222193,-0.2584248408,9.877571692799998,0.009773843811168246,-0.026878070480712675,-0.012217304763960306,1756822326.930091
1.9429719511999999,-0.28474588939999995,9.9732845968,0.0024434609527920616,-0.009773843811168246,-0.03787364476827695,1756822326.938078
1.8999011443999998,-0.32542387359999997,9.9876415324,0.01710422666954443,-0.023212879051524585,-0.04153883619746504,1756822326.946121
1.9310078382,-0.47377887479999997,9.9732845968,0.0158824961931484,-0.030543261909900768,-0.0317649923862968,1756822326.954086
1.9453647737999997,-0.6269195211999999,9.9469635482,-0.0024434609527920616,-0.03665191429188092,-0.023212879051524585,1756822326.962111
1.9549360641999998,-0.6987041992,9.906285564,0.05375614096142535,-0.004886921905584123,-0.03787364476827695,1756822326.970136
1.9716858224,-0.6675975054,9.8991070962,0.035430183815484885,-0.03298672286269283,-0.07452555906015787,1756822326.978282
1.9836499354,-0.6867400862,9.954142015999999,0.05253441048502932,-0.040317105721069016,-0.06719517620178168,1756822326.986108
1.9980068709999999,-0.6628118601999999,9.954142015999999,0.06230825429619756,-0.06719517620178168,-0.028099800957108706,1756822326.994181
2.0195422744,-0.6747759731999999,9.9517491934,0.03298672286269283,-0.06841690667817772,-0.04642575810304917,1756822327.002081
2.0530417908,-0.7082754896,9.954142015999999,0.040317105721069016,-0.048869219055841226,-0.007330382858376184,1756822327.010093
2.0961125976,-0.7848458128,9.925428144799998,-0.008552113334772215,-0.06597344572538566,-0.039095375244672985,1756822327.018191
2.1152551784,-0.825523797,9.9038927414,0.02076941809873252,-0.06719517620178168,-0.0317649923862968,1756822327.026066
2.141576227,-0.861416136,9.8751788702,0.019547687622336492,-0.06597344572538566,-0.023212879051524585,1756822327.034101
2.1200408235999997,-0.8279166196,9.8368937086,0.009773843811168246,-0.059864793343405505,-0.019547687622336492,1756822327.042094
2.1343977592,-0.7824529901999999,9.803394192199999,0.02199114857512855,-0.05009094953223726,-0.003665191429188092,1756822327.050120
2.1032910653999997,-0.7250252477999999,9.7938229018,0.009773843811168246,-0.024434609527920613,-0.019547687622336492,1756822327.058104
2.1080767106,-0.6963113766,9.7818587888,-0.008552113334772215,-0.04276056667386108,-0.006108652381980153,1756822327.066089
2.1200408235999997,-0.6317051664,9.7459664498,-0.025656340004316644,-0.023212879051524585,-0.030543261909900768,1756822327.074109
2.1343977592,-0.6460621019999999,9.7579305628,-0.02199114857512855,-0.010995574287564275,-0.006108652381980153,1756822327.082099
2.1272192914,-0.6029912951999999,9.7603233854,0.013439035240356337,-0.009773843811168246,-0.009773843811168246,1756822327.090073
2.1248264688,-0.6293123438,9.774680320999998,-0.030543261909900768,-0.0024434609527920616,0.01710422666954443,1756822327.098180
2.1152551784,-0.5742774239999999,9.8273224182,-0.013439035240356337,0.03298672286269283,-0.009773843811168246,1756822327.106071
2.0985054202,-0.5862415369999999,9.848857821600001,-0.05009094953223726,0.026878070480712675,0.004886921905584123,1756822327.114085
2.0602202586,-0.5814558917999999,9.913464031799998,-0.02076941809873252,0.06719517620178168,0.003665191429188092,1756822327.122118
2.0171494518,-0.5694917787999999,9.966106128999998,0.0012217304763960308,0.04276056667386108,0.05009094953223726,1756822327.130087
1.986042758,-0.5599204884,10.0187482262,-0.010995574287564275,0.05009094953223726,0.0024434609527920616,1756822327.138605
1.9429719511999999,-0.5742774239999999,10.0235338714,-0.026878070480712675,0.03665191429188092,-0.013439035240356337,1756822327.146093
1.9286150156,-0.5670989562,10.009176935799998,-0.009773843811168246,0.0317649923862968,0.026878070480712675,1756822327.154082
1.9070796122,-0.562313311,9.9373922578,-0.013439035240356337,-0.010995574287564275,0.003665191429188092,1756822327.162114
1.8927226766,-0.5694917787999999,9.9469635482,-0.025656340004316644,-0.026878070480712675,0.039095375244672985,1756822327.170102
1.8975083218,-0.5455635528,9.925428144799998,-0.010995574287564275,-0.04520402762665313,0.0158824961931484,1756822327.178141
1.8735800958,-0.5335994398,9.8680004024,-0.023212879051524585,-0.030543261909900768,-0.02076941809873252,1756822327.186075
1.950150419,-0.5431707302,9.8967142736,0.0024434609527920616,-0.05009094953223726,-0.006108652381980153,1756822327.194105
2.0291135648,-0.5407779076,9.8632147572,-0.019547687622336492,-0.05253441048502932,-0.0158824961931484,1756822327.202102
2.0434705004,-0.5575276658,9.9038927414,0.0158824961931484,-0.04276056667386108,-0.01832595714594046,1756822327.210080
2.0793628394,-0.5407779076,9.9086783866,0.0158824961931484,-0.010995574287564275,-0.03298672286269283,1756822327.218118
2.0961125976,-0.48574298779999997,9.9445707256,0.03298672286269283,-0.019547687622336492,-0.05009094953223726,1756822327.226149
2.093719775,-0.4450650036,9.9469635482,0.026878070480712675,-0.007330382858376184,-0.04520402762665313,1756822327.234084
2.0386848551999996,-0.3565305674,9.9828558872,0.006108652381980153,0.014660765716752368,-0.04520402762665313,1756822327.242090
1.9716858224,-0.31345976059999997,9.925428144799998,0.009773843811168246,0.008552113334772215,-0.019547687622336492,1756822327.250129
1.9190437251999999,-0.22731814699999997,9.8919286284,-0.023212879051524585,0.023212879051524585,-0.03298672286269283,1756822327.258082
1.8687944506,-0.2656033086,9.7938229018,-0.04153883619746504,0.006108652381980153,-0.04276056667386108,1756822327.266109
1.8520446923999998,-0.3278166962,9.774680320999998,-0.03298672286269283,0.02199114857512855,-0.03298672286269283,1756822327.274130
1.8065810629999999,-0.39960137419999997,9.7794659662,-0.013439035240356337,-0.02076941809873252,-0.02199114857512855,1756822327.282103
1.8041882403999998,-0.41156548719999997,9.846464998999998,0.003665191429188092,-0.0158824961931484,-0.039095375244672985,1756822327.290129
1.8281164663999998,-0.4331008906,9.8440721764,-0.0024434609527920616,-0.03420845333908886,-0.01710422666954443,1756822327.298082
1.8185451759999998,-0.5072783912,9.8680004024,0.013439035240356337,-0.040317105721069016,-0.048869219055841226,1756822327.306084
1.8616159827999998,-0.6029912951999999,9.8991070962,0.009773843811168246,-0.03298672286269283,-0.025656340004316644,1756822327.314086
1.902293967,-0.7130611348,9.918249676999999,0.040317105721069016,-0.028099800957108706,-0.04520402762665313,1756822327.322104
1.9740786449999999,-0.7609175867999999,9.9397850804,0.058643062867009474,-0.039095375244672985,-0.06475171524898962,1756822327.330131
2.0315063874,-0.7609175867999999,9.966106128999998,0.040317105721069016,-0.026878070480712675,-0.024434609527920613,1756822327.338086
2.0315063874,-0.6963113766,9.978070242,0.059864793343405505,-0.03665191429188092,-0.08063421144213803,1756822327.346086
2.0315063874,-0.6747759731999999,9.9732845968,0.030543261909900768,-0.05009094953223726,-0.035430183815484885,1756822327.354104
2.0410776778,-0.6771687958,9.9684989516,0.012217304763960306,-0.06841690667817772,-0.026878070480712675,1756822327.362085
2.093719775,-0.7345965381999999,9.925428144799998,0.01710422666954443,-0.0635299847725936,-0.03298672286269283,1756822327.370129
2.1104695332,-0.7752745223999999,9.9206424996,0.0,-0.05619960191421741,-0.013439035240356337,1756822327.378096
2.1343977592,-0.7657032319999999,9.9110712092,0.030543261909900768,-0.05253441048502932,-0.025656340004316644,1756822327.386139
2.1248264688,-0.7537391189999999,9.954142015999999,0.023212879051524585,-0.07086036763096977,-0.06719517620178168,1756822327.394094
2.1200408235999997,-0.681954441,9.918249676999999,0.013439035240356337,-0.05375614096142535,0.028099800957108706,1756822327.402067
2.1080767106,-0.6197410534,9.8967142736,0.03420845333908886,-0.05253441048502932,-0.012217304763960306,1756822327.410079
2.1128623558,-0.5886343596,9.8680004024,-0.009773843811168246,-0.03298672286269283,-0.023212879051524585,1756822327.418124
2.0506489682,-0.5647061336,9.848857821600001,0.0024434609527920616,-0.014660765716752368,-0.026878070480712675,1756822327.426106
2.03389921,-0.5982056499999999,9.762716207999999,0.009773843811168246,-0.026878070480712675,-0.02199114857512855,1756822327.434086
1.986042758,-0.6221338759999999,9.7340023368,-0.023212879051524585,-0.019547687622336492,-0.007330382858376184,1756822327.442073
1.9669001771999999,-0.6364908116,9.7076812882,0.02076941809873252,-0.06230825429619756,0.009773843811168246,1756822327.450105
1.9453647737999997,-0.6460621019999999,9.611968384199999,-0.0024434609527920616,-0.025656340004316644,0.04520402762665313,1756822327.458088
1.9310078382,-0.6340979889999999,9.6167540294,0.0,-0.030543261909900768,-0.025656340004316644,1756822327.466074
2.0075781614,-0.6173482307999999,9.669396126599999,0.026878070480712675,-0.013439035240356337,-0.007330382858376184,1756822327.474070
2.0482561456,-0.5838487144,9.762716207999999,-0.012217304763960306,0.008552113334772215,0.01710422666954443,1756822327.482109
2.0673987264,-0.5718846014,9.8680004024,0.029321531433504737,0.012217304763960306,-0.006108652381980153,1756822327.490079
2.1104695332,-0.5431707302,9.949356370799999,0.010995574287564275,0.009773843811168246,0.019547687622336492,1756822327.498096
2.0961125976,-0.5024927459999999,10.013962581,0.023212879051524585,0.009773843811168246,-0.0012217304763960308,1756822327.506095
2.0793628394,-0.48574298779999997,10.1264252432,-0.003665191429188092,0.008552113334772215,-0.013439035240356337,1756822327.514072
2.0410776778,-0.4881358104,10.1383893562,-0.025656340004316644,0.025656340004316644,-0.003665191429188092,1756822327.522091
1.9597217094000001,-0.48095734259999995,10.0642118556,-0.01710422666954443,0.0317649923862968,0.003665191429188092,1756822327.530071
1.9310078382,-0.5312066172,9.985248709799999,-0.058643062867009474,-0.0012217304763960308,0.0,1756822327.538073
1.8999011443999998,-0.6005984726,9.9086783866,-0.025656340004316644,-0.026878070480712675,0.003665191429188092,1756822327.546097
1.9214365477999997,-0.6293123438,9.810572659999998,-0.007330382858376184,-0.030543261909900768,0.0,1756822327.554063
1.9477575963999998,-0.6867400862,9.762716207999999,-0.012217304763960306,-0.07696902001294993,-0.023212879051524585,1756822327.562090
1.9334006607999998,-0.6412764568,9.762716207999999,0.0024434609527920616,-0.07452555906015787,0.006108652381980153,1756822327.570072
1.950150419,-0.6532405698,9.7794659662,0.0012217304763960308,-0.03420845333908886,-0.012217304763960306,1756822327.578101
2.0051853387999996,-0.6412764568,9.834500885999999,0.019547687622336492,-0.048869219055841226,-0.012217304763960306,1756822327.586089
2.093719775,-0.5742774239999999,9.8919286284,0.026878070480712675,-0.030543261909900768,-0.02076941809873252,1756822327.594077
2.1176480009999996,-0.5168496816,9.9445707256,0.023212879051524585,-0.02076941809873252,-0.061086523819801536,1756822327.602074
2.1224336461999997,-0.48335016519999996,9.997212822799998,0.030543261909900768,-0.003665191429188092,-0.003665191429188092,1756822327.610059
2.0889341298,-0.47856452,10.013962581,0.007330382858376184,0.007330382858376184,-0.05253441048502932,1756822327.618105
2.0530417908,-0.4259224228,10.0570333878,0.01710422666954443,0.006108652381980153,-0.019547687622336492,1756822327.626135
1.9908284031999999,-0.4163511324,9.994820000199999,-0.02199114857512855,-0.013439035240356337,-0.03298672286269283,1756822327.634081
1.9525432416,-0.4139583098,9.930213789999998,-0.02199114857512855,-0.026878070480712675,-0.009773843811168246,1756822327.642104
1.9094724347999998,-0.46660040699999994,9.882357337999998,0.012217304763960306,-0.03420845333908886,-0.048869219055841226,1756822327.650119
1.9118652573999997,-0.46660040699999994,9.8440721764,0.009773843811168246,-0.04642575810304917,-0.023212879051524585,1756822327.658081
1.8807585636,-0.4618147618,9.846464998999998,0.023212879051524585,-0.05253441048502932,-0.04276056667386108,1756822327.666151
1.8616159827999998,-0.40917266459999996,9.822536773,0.007330382858376184,-0.05131268000863329,-0.026878070480712675,1756822327.674094
1.9310078382,-0.418743955,9.8177511278,0.013439035240356337,-0.05253441048502932,-0.02076941809873252,1756822327.682122
1.9836499354,-0.4378865357999999,9.834500885999999,0.04276056667386108,-0.05375614096142535,-0.05009094953223726,1756822327.690115
2.021935097,-0.49770710079999997,9.913464031799998,0.048869219055841226,-0.05375614096142535,-0.025656340004316644,1756822327.698101
2.0985054202,-0.5312066172,9.963713306399999,0.02076941809873252,-0.039095375244672985,-0.013439035240356337,1756822327.706143
2.0961125976,-0.5455635528,9.961320483799998,0.04276056667386108,-0.04520402762665313,-0.04276056667386108,1756822327.714151
2.1320049365999996,-0.6412764568,9.9349994352,0.007330382858376184,-0.05375614096142535,-0.012217304763960306,1756822327.722098
2.1439690496,-0.6891329088,9.9469635482,0.035430183815484885,-0.0439822971502571,-0.0317649923862968,1756822327.730091
2.1272192914,-0.6891329088,9.9469635482,0.03420845333908886,-0.04642575810304917,-0.026878070480712675,1756822327.738093
2.1439690496,-0.7130611348,9.906285564,0.03665191429188092,-0.030543261909900768,-0.013439035240356337,1756822327.746152
2.0961125976,-0.6915257314,9.9086783866,0.035430183815484885,-0.024434609527920613,-0.019547687622336492,1756822327.754086
2.1391834043999998,-0.6532405698,9.9110712092,0.01710422666954443,-0.013439035240356337,-0.035430183815484885,1756822327.762108
2.0721843715999997,-0.6771687958,9.9110712092,0.03665191429188092,-0.024434609527920613,-0.003665191429188092,1756822327.770119
2.0578274359999997,-0.6628118601999999,9.894321451,-0.0024434609527920616,-0.019547687622336492,-0.03298672286269283,1756822327.778090
2.0027925162,-0.6053841178,9.8727860476,0.04276056667386108,-0.019547687622336492,-0.0317649923862968,1756822327.786124
1.950150419,-0.5694917787999999,9.8967142736,0.019547687622336492,-0.003665191429188092,-0.0317649923862968,1756822327.794218
1.9549360641999998,-0.5718846014,9.853643466799998,0.0,-0.04642575810304917,-0.05131268000863329,1756822327.802091
1.9477575963999998,-0.5551348432,9.7938229018,0.012217304763960306,-0.05253441048502932,0.0,1756822327.810071
1.9573288867999998,-0.6053841178,9.7196454012,-0.008552113334772215,-0.05375614096142535,-0.023212879051524585,1756822327.818190
1.9453647737999997,-0.6269195211999999,9.674181771799999,0.013439035240356337,-0.05253441048502932,0.013439035240356337,1756822327.826145
2.0147566292,-0.6388836341999999,9.667003304,-0.0024434609527920616,-0.05009094953223726,-0.0024434609527920616,1756822327.834094
2.081755662,-0.6221338759999999,9.7244310464,-0.024434609527920613,-0.03665191429188092,-0.03298672286269283,1756822327.842117
2.1678972756,-0.6293123438,9.7603233854,0.006108652381980153,-0.0158824961931484,-0.004886921905584123,1756822327.850119
2.1990039693999996,-0.6197410534,9.853643466799998,-0.019547687622336492,0.012217304763960306,0.0,1756822327.858086
2.2181465501999997,-0.6364908116,9.927820967399999,-0.025656340004316644,-0.01710422666954443,0.039095375244672985,1756822327.866106
2.2205393728,-0.6484549246,10.0163554036,-0.035430183815484885,0.02199114857512855,-0.0012217304763960308,1756822327.874108
2.1726829208,-0.6388836341999999,10.042676452199998,-0.026878070480712675,0.04276056667386108,0.05253441048502932,1756822327.882105
2.1583259852,-0.6771687958,10.0881400816,-0.013439035240356337,0.0317649923862968,-0.035430183815484885,1756822327.890502
2.069791549,-0.6436692794,10.0713903234,-0.04642575810304917,0.06475171524898962,-0.004886921905584123,1756822327.898193
2.0291135648,-0.658026215,10.0402836296,-0.006108652381980153,0.0317649923862968,0.003665191429188092,1756822327.906092
1.9645073545999998,-0.6293123438,9.994820000199999,-0.0317649923862968,0.006108652381980153,-0.025656340004316644,1756822327.914109
1.9286150156,-0.6029912951999999,9.9326066126,-0.058643062867009474,0.0024434609527920616,-0.007330382858376184,1756822327.922163
1.9525432416,-0.6388836341999999,9.839286531199999,-0.040317105721069016,-0.030543261909900768,-0.0012217304763960308,1756822327.930089
1.9549360641999998,-0.6005984726,9.774680320999998,-0.03665191429188092,-0.05497787143782138,0.006108652381980153,1756822327.938093
1.9525432416,-0.6293123438,9.7651090306,-0.02076941809873252,-0.047647488579445195,-0.019547687622336492,1756822327.946106
2.0075781614,-0.5934200048,9.714859756,-0.025656340004316644,-0.05619960191421741,-0.012217304763960306,1756822327.954093
2.0482561456,-0.6197410534,9.714859756,-0.05131268000863329,-0.026878070480712675,-0.04642575810304917,1756822327.962110
2.1200408235999997,-0.6029912951999999,9.7579305628,0.014660765716752368,-0.026878070480712675,-0.01710422666954443,1756822327.970103
2.1248264688,-0.5838487144,9.803394192199999,-0.0158824961931484,-0.006108652381980153,-0.03665191429188092,1756822327.978102
2.141576227,-0.562313311,9.877571692799998,0.006108652381980153,0.013439035240356337,-0.04520402762665313,1756822327.986134
2.1128623558,-0.5216353268,9.949356370799999,0.009773843811168246,0.01832595714594046,-0.026878070480712675,1756822327.994151
2.0913269523999998,-0.47138605219999996,9.999605645399999,-0.01832595714594046,0.014660765716752368,-0.035430183815484885,1756822328.002080
2.0410776778,-0.4259224228,9.994820000199999,0.007330382858376184,0.02199114857512855,-0.023212879051524585,1756822328.010076
1.962114532,-0.3565305674,9.985248709799999,-0.008552113334772215,0.0317649923862968,-0.03298672286269283,1756822328.018101
1.9190437251999999,-0.31106693799999996,9.925428144799998,-0.02199114857512855,-0.003665191429188092,-0.06475171524898962,1756822328.026110
1.8472590472,-0.28474588939999995,9.8967142736,-0.02199114857512855,-0.009773843811168246,-0.029321531433504737,1756822328.034088
1.8951154991999999,-0.2799602442,9.8440721764,-0.05253441048502932,-0.010995574287564275,-0.04520402762665313,1756822328.042132
1.8376877567999998,-0.3038884702,9.7962157244,-0.006108652381980153,-0.024434609527920613,-0.04520402762665313,1756822328.050077
1.8233308212,-0.3445664544,9.7938229018,-0.012217304763960306,-0.026878070480712675,-0.035430183815484885,1756822328.058101
1.8568303376,-0.3421736318,9.846464998999998,-0.007330382858376184,-0.026878070480712675,-0.0317649923862968,1756822328.066089
1.8831513862,-0.418743955,9.8680004024,-0.0158824961931484,-0.05742133239061344,-0.06230825429619756,1756822328.074105
1.9334006607999998,-0.4761716974,9.9397850804,-0.006108652381980153,-0.030543261909900768,-0.05619960191421741,1756822328.082355
1.9525432416,-0.5288137946,9.9349994352,0.014660765716752368,-0.04642575810304917,-0.06475171524898962,1756822328.090090
1.9956140484,-0.6771687958,9.913464031799998,0.013439035240356337,-0.05253441048502932,-0.06475171524898962,1756822328.098102
2.0745771942,-0.7489534737999999,9.8991070962,0.05253441048502932,-0.03420845333908886,-0.07452555906015787,1756822328.106095
2.1272192914,-0.8063812161999999,9.930213789999998,0.026878070480712675,-0.03420845333908886,-0.0757472895365539,1756822328.114089
2.1032910653999997,-0.7920242806,9.949356370799999,0.0635299847725936,-0.05619960191421741,-0.040317105721069016,1756822328.122127
2.1224336461999997,-0.7274180704000001,9.9756774194,0.08552113334772216,-0.04642575810304917,-0.048869219055841226,1756822328.130089
2.1176480009999996,-0.6915257314,9.9469635482,0.04276056667386108,-0.059864793343405505,-0.026878070480712675,1756822328.138085
2.1320049365999996,-0.7034898444,9.9756774194,0.04520402762665313,-0.05375614096142535,-0.05497787143782138,1756822328.146132
2.1320049365999996,-0.6963113766,9.925428144799998,0.0158824961931484,-0.059864793343405505,-0.019547687622336492,1756822328.154175
2.1200408235999997,-0.7154539573999998,9.9469635482,0.014660765716752368,-0.05375614096142535,-0.05497787143782138,1756822328.162079
2.1272192914,-0.7752745223999999,9.9086783866,0.047647488579445195,-0.06597344572538566,-0.0158824961931484,1756822328.170104
2.1008982428,-0.8015955709999999,9.887142983199999,-0.019547687622336492,-0.048869219055841226,0.003665191429188092,1756822328.178118
2.0961125976,-0.8159525066,9.8273224182,0.013439035240356337,-0.040317105721069016,-0.009773843811168246,1756822328.186086
2.0721843715999997,-0.83748791,9.7555377402,-0.0158824961931484,-0.05253441048502932,-0.019547687622336492,1756822328.194079
2.0362920326,-0.8087740388,9.6933243526,-0.019547687622336492,-0.05253441048502932,0.0,1756822328.202107
2.03389921,-0.8087740388,9.678967416999999,-0.0024434609527920616,-0.024434609527920613,0.01710422666954443,1756822328.210100
2.0530417908,-0.7633104094,9.669396126599999,-0.025656340004316644,-0.03665191429188092,-0.025656340004316644,1756822328.218123
2.1032910653999997,-0.7250252477999999,9.7244310464,-0.009773843811168246,-0.003665191429188092,-0.013439035240356337,1756822328.226130
2.1320049365999996,-0.7034898444,9.7962157244,-0.013439035240356337,-0.009773843811168246,0.003665191429188092,1756822328.234089
2.1631116304,-0.658026215,9.913464031799998,-0.008552113334772215,0.012217304763960306,0.003665191429188092,1756822328.242112
2.141576227,-0.6484549246,10.013962581,0.01710422666954443,0.0158824961931484,0.0012217304763960308,1756822328.250124
2.1583259852,-0.6149554081999999,10.045069274799998,-0.02076941809873252,0.039095375244672985,0.008552113334772215,1756822328.258108
2.1439690496,-0.6005984726,10.0283195166,0.01710422666954443,0.019547687622336492,0.003665191429188092,1756822328.266092
2.0793628394,-0.5790630692,10.030712339199999,-0.01710422666954443,0.02199114857512855,-0.014660765716752368,1756822328.274102
2.0745771942,-0.5359922624,10.037890806999998,-0.04520402762665313,0.006108652381980153,-0.0158824961931484,1756822328.282226
2.0578274359999997,-0.550349198,10.0474620974,-0.013439035240356337,-0.006108652381980153,0.026878070480712675,1756822328.290088
2.0123638066,-0.5551348432,9.9924271776,-0.026878070480712675,-0.019547687622336492,0.0024434609527920616,1756822328.298133
2.0195422744,-0.5551348432,9.925428144799998,-0.025656340004316644,-0.03420845333908886,-0.007330382858376184,1756822328.306087
2.0267207421999998,-0.5479563754,9.8751788702,-0.04520402762665313,-0.04642575810304917,-0.023212879051524585,1756822328.314172
2.0721843715999997,-0.5934200048,9.8249295956,-0.025656340004316644,-0.06230825429619756,-0.004886921905584123,1756822328.322105
2.0865413072,-0.6197410534,9.7555377402,-0.007330382858376184,-0.05375614096142535,-0.013439035240356337,1756822328.330106
2.1152551784,-0.5910271822,9.7794659662,-0.007330382858376184,-0.05253441048502932,0.006108652381980153,1756822328.338099
2.141576227,-0.5934200048,9.7698946758,0.006108652381980153,-0.040317105721069016,-0.029321531433504737,1756822328.346086
2.1846470337999997,-0.5383850849999999,9.822536773,0.019547687622336492,-0.029321531433504737,-0.023212879051524585,1756822328.354085
2.1583259852,-0.5096712137999999,9.882357337999998,0.0158824961931484,-0.006108652381980153,-0.026878070480712675,1756822328.362110
2.1367905817999997,-0.46660040699999994,9.913464031799998,0.03420845333908886,0.024434609527920613,-0.008552113334772215,1756822328.370127
2.0650059038,-0.4019941968,9.913464031799998,-0.025656340004316644,0.035430183815484885,-0.029321531433504737,1756822328.378126
2.0003996936,-0.406779842,9.870393224999999,0.019547687622336492,0.01832595714594046,-0.02076941809873252,1756822328.386110
1.9166509026,-0.39720855159999996,9.812965482600001,-0.019547687622336492,0.029321531433504737,-0.0012217304763960308,1756822328.394110
1.9070796122,-0.4378865357999999,9.7579305628,-0.026878070480712675,0.012217304763960306,-0.03665191429188092,1756822328.402123
1.8616159827999998,-0.47856452,9.731609514199999,-0.0024434609527920616,0.006108652381980153,-0.003665191429188092,1756822328.410074
1.8592231602,-0.46660040699999994,9.7483592724,-0.01710422666954443,-0.01710422666954443,-0.04520402762665313,1756822328.418139
1.8568303376,-0.48574298779999997,9.7938229018,0.023212879051524585,-0.040317105721069016,-0.03420845333908886,1756822328.426121
1.8568303376,-0.47138605219999996,9.8967142736,0.03298672286269283,-0.04276056667386108,-0.07208209810736581,1756822328.434121
1.8951154991999999,-0.4929214556,9.9397850804,0.010995574287564275,-0.05375614096142535,-0.05253441048502932,1756822328.442106
1.9980068709999999,-0.47856452,9.9876415324,0.029321531433504737,-0.05375614096142535,-0.01710422666954443,1756822328.450083
2.0195422744,-0.5264209719999999,9.9828558872,0.029321531433504737,-0.04276056667386108,-0.039095375244672985,1756822328.458077
2.0961125976,-0.6340979889999999,9.9684989516,0.029321531433504737,-0.04276056667386108,-0.019547687622336492,1756822328.466123
2.1224336461999997,-0.7034898444,9.978070242,0.007330382858376184,-0.06230825429619756,-0.05253441048502932,1756822328.474069
2.1487546948,-0.7561319416,9.9684989516,0.01710422666954443,-0.04642575810304917,-0.012217304763960306,1756822328.482059
2.1559331626,-0.7202396025999999,9.9684989516,0.05253441048502932,-0.059864793343405505,-0.0317649923862968,1756822328.490107
2.1367905817999997,-0.7154539573999998,9.9517491934,0.019547687622336492,-0.05619960191421741,-0.035430183815484885,1756822328.498071
2.1391834043999998,-0.7250252477999999,9.9110712092,0.029321531433504737,-0.04276056667386108,-0.035430183815484885,1756822328.506099
2.1080767106,-0.7322037155999999,9.8919286284,0.019547687622336492,-0.07208209810736581,-0.026878070480712675,1756822328.514071
2.1176480009999996,-0.7393821834,9.9038927414,0.009773843811168246,-0.059864793343405505,-0.0158824961931484,1756822328.522110
2.1224336461999997,-0.7489534737999999,9.9086783866,0.04276056667386108,-0.058643062867009474,-0.012217304763960306,1756822328.530083
2.1200408235999997,-0.7489534737999999,9.8560362894,0.01710422666954443,-0.07086036763096977,-0.006108652381980153,1756822328.538091
2.1056838879999997,-0.7872386353999999,9.8201439504,0.009773843811168246,-0.059864793343405505,-0.03298672286269283,1756822328.546074
2.081755662,-0.849452023,9.762716207999999,0.019547687622336492,-0.05375614096142535,-0.004886921905584123,1756822328.554070
2.1152551784,-0.8303094421999999,9.6861458848,0.003665191429188092,-0.059864793343405505,-0.0158824961931484,1756822328.562067
2.1391834043999998,-0.8279166196,9.690931529999999,0.028099800957108706,-0.03665191429188092,0.009773843811168246,1756822328.570091
2.1822542112,-0.7776673449999999,9.705288465599999,-0.007330382858376184,-0.010995574287564275,-0.030543261909900768,1756822328.578073
2.2516460665999998,-0.7010970218,9.798608546999999,0.0158824961931484,0.0024434609527920616,0.0317649923862968,1756822328.586106
2.2875384056,-0.693918554,9.8751788702,0.003665191429188092,0.025656340004316644,-0.029321531433504737,1756822328.594073
2.2803599377999997,-0.693918554,9.9326066126,-0.0024434609527920616,0.04276056667386108,-0.0158824961931484,1756822328.602094
2.2061824372,-0.6245266986,9.985248709799999,0.019547687622336492,0.04153883619746504,0.0,1756822328.610065
2.1655044529999996,-0.5862415369999999,10.0115697584,-0.012217304763960306,0.06230825429619756,-0.006108652381980153,1756822328.618102
2.1176480009999996,-0.5814558917999999,10.045069274799998,-0.0158824961931484,0.04276056667386108,0.02076941809873252,1756822328.626133
2.0530417908,-0.5527420206,9.999605645399999,-0.008552113334772215,0.047647488579445195,-0.023212879051524585,1756822328.634091
1.9549360641999998,-0.5527420206,9.958927661199999,-0.019547687622336492,0.03787364476827695,0.03787364476827695,1756822328.642244
1.8951154991999999,-0.562313311,9.887142983199999,-0.01710422666954443,0.013439035240356337,-0.019547687622336492,1756822328.650138
1.8975083218,-0.5599204884,9.8201439504,-0.013439035240356337,-0.013439035240356337,-0.003665191429188092,1756822328.658086
1.8951154991999999,-0.5599204884,9.7603233854,-0.0158824961931484,-0.04642575810304917,-0.02199114857512855,1756822328.666108
1.926222193,-0.5527420206,9.7340023368,0.019547687622336492,-0.058643062867009474,0.0012217304763960308,1756822328.674103
1.962114532,-0.490528633,9.7770731436,-0.003665191429188092,-0.05375614096142535,-0.0158824961931484,1756822328.682093
2.0554346134,-0.49531427819999996,9.812965482600001,0.029321531433504737,-0.07208209810736581,-0.007330382858376184,1756822328.690124
2.1008982428,-0.430708068,9.8608219346,0.013439035240356337,-0.05619960191421741,-0.0012217304763960308,1756822328.698155
2.1104695332,-0.4163511324,9.913464031799998,0.013439035240356337,-0.03665191429188092,-0.03665191429188092,1756822328.706097
2.1128623558,-0.38045879339999994,9.923035322199999,-0.0024434609527920616,-0.013439035240356337,-0.007330382858376184,1756822328.714136
2.0913269523999998,-0.3445664544,9.906285564,0.006108652381980153,-0.013439035240356337,-0.03665191429188092,1756822328.722103
2.0386848551999996,-0.3158525832,9.894321451,-0.0012217304763960308,-0.007330382858376184,-0.04276056667386108,1756822328.730099
1.9812571127999998,-0.3445664544,9.834500885999999,-0.024434609527920613,0.0,-0.039095375244672985,1756822328.738086
1.9310078382,-0.38285161599999995,9.841679353799998,0.0,-0.006108652381980153,-0.0317649923862968,1756822328.746170
1.9214365477999997,-0.4259224228,9.8440721764,0.0012217304763960308,-0.003665191429188092,-0.03665191429188092,1756822328.754094
1.950150419,-0.44027935839999993,9.839286531199999,-0.0024434609527920616,-0.029321531433504737,-0.04642575810304917,1756822328.762086
1.9334006607999998,-0.45224347139999993,9.8368937086,0.014660765716752368,-0.03298672286269283,-0.048869219055841226,1756822328.770103
1.9525432416,-0.4761716974,9.848857821600001,0.009773843811168246,-0.023212879051524585,-0.023212879051524585,1756822328.778084
2.0123638066,-0.5288137946,9.9086783866,0.06230825429619756,-0.07086036763096977,-0.058643062867009474,1756822328.786118
2.0626130812,-0.5766702466,9.8967142736,0.025656340004316644,-0.05131268000863329,-0.01832595714594046,1756822328.794131
2.0961125976,-0.5934200048,9.963713306399999,0.029321531433504737,-0.03787364476827695,-0.07452555906015787,1756822328.802084
2.1535403399999997,-0.6269195211999999,9.963713306399999,0.048869219055841226,-0.079412480965742,-0.008552113334772215,1756822328.810080
2.201396792,-0.6484549246,10.0115697584,0.009773843811168246,-0.0317649923862968,-0.058643062867009474,1756822328.818129
2.1702900981999997,-0.7154539573999998,10.006784113199998,0.03298672286269283,-0.05009094953223726,-0.05131268000863329,1756822328.826085
2.2109680824,-0.7250252477999999,10.001998467999998,0.019547687622336492,-0.040317105721069016,-0.06230825429619756,1756822328.834121
2.189432679,-0.7369893607999999,9.9206424996,0.026878070480712675,-0.04153883619746504,-0.03298672286269283,1756822328.842136
2.1750757434,-0.6987041992,9.851250644199999,0.04276056667386108,-0.05742133239061344,-0.035430183815484885,1756822328.850086
2.1439690496,-0.7202396025999999,9.865607579799999,0.013439035240356337,-0.03787364476827695,-0.08185594191853406,1756822328.858107
2.1391834043999998,-0.7298108929999999,9.846464998999998,0.007330382858376184,-0.024434609527920613,-0.03665191429188092,1756822328.866108
2.1750757434,-0.7393821834,9.8368937086,0.029321531433504737,-0.03298672286269283,-0.047647488579445195,1756822328.874175
2.1535403399999997,-0.7441678285999999,9.8273224182,0.006108652381980153,-0.019547687622336492,-0.025656340004316644,1756822328.882083
2.1367905817999997,-0.7393821834,9.786644434,0.03420845333908886,-0.019547687622336492,-0.02199114857512855,1756822328.890094
2.1750757434,-0.7465606511999999,9.798608546999999,-0.0158824961931484,-0.039095375244672985,-0.06230825429619756,1756822328.898119
2.1463618722,-0.7465606511999999,9.7794659662,-0.003665191429188092,-0.05009094953223726,-0.023212879051524585,1756822328.906104
2.1367905817999997,-0.7369893607999999,9.7722874984,-0.003665191429188092,-0.026878070480712675,-0.013439035240356337,1756822328.914079
2.1607188078,-0.6771687958,9.7459664498,-0.003665191429188092,-0.003665191429188092,0.009773843811168246,1756822328.922124
2.1631116304,-0.6915257314,9.798608546999999,0.003665191429188092,-0.010995574287564275,-0.058643062867009474,1756822328.930090
2.1439690496,-0.658026215,9.865607579799999,0.0,0.014660765716752368,0.048869219055841226,1756822328.938096
2.129612114,-0.5958128274,9.870393224999999,-0.012217304763960306,0.008552113334772215,-0.05619960191421741,1756822328.946168
2.1128623558,-0.6125625856,9.8847501606,-0.010995574287564275,0.029321531433504737,0.0012217304763960308,1756822328.954088
2.0745771942,-0.5982056499999999,9.882357337999998,-0.05497787143782138,0.04520402762665313,-0.026878070480712675,1756822328.962079
2.0578274359999997,-0.6029912951999999,9.8919286284,-0.02199114857512855,0.0317649923862968,-0.012217304763960306,1756822328.970112
2.0291135648,-0.6077769404,9.8799645154,-0.04520402762665313,0.013439035240356337,0.01832595714594046,1756822328.978083
2.0147566292,-0.6269195211999999,9.8560362894,-0.009773843811168246,0.009773843811168246,0.0024434609527920616,1756822328.986147
2.0003996936,-0.6317051664,9.8632147572,-0.023212879051524585,-0.0012217304763960308,0.023212879051524585,1756822328.994135
2.0195422744,-0.6221338759999999,9.8751788702,-0.04153883619746504,-0.006108652381980153,-0.029321531433504737,1756822329.002091
2.0027925162,-0.5910271822,9.870393224999999,-0.006108652381980153,-0.009773843811168246,0.010995574287564275,1756822329.010089
2.0291135648,-0.5599204884,9.8751788702,-0.035430183815484885,-0.028099800957108706,-0.019547687622336492,1756822329.018091
2.0554346134,-0.5910271822,9.882357337999998,-0.0024434609527920616,-0.03298672286269283,-0.02199114857512855,1756822329.026123
2.1032910653999997,-0.5934200048,9.9206424996,0.013439035240356337,-0.047647488579445195,-0.029321531433504737,1756822329.034093
2.1367905817999997,-0.5862415369999999,9.923035322199999,-0.006108652381980153,-0.05253441048502932,-0.009773843811168246,1756822329.042094
2.1391834043999998,-0.5479563754,9.9206424996,0.013439035240356337,-0.03298672286269283,-0.0158824961931484,1756822329.050106
2.1678972756,-0.5551348432,9.9373922578,0.0,-0.01710422666954443,-0.029321531433504737,1756822329.058084
2.1511475173999997,-0.5335994398,9.9397850804,0.010995574287564275,0.004886921905584123,-0.006108652381980153,1756822329.066112
2.1320049365999996,-0.49531427819999996,9.8991070962,0.019547687622336492,0.004886921905584123,-0.013439035240356337,1756822329.074119
2.1176480009999996,-0.48335016519999996,9.923035322199999,0.0024434609527920616,-0.006108652381980153,-0.019547687622336492,1756822329.082087
2.1320049365999996,-0.5048855686,9.9684989516,0.007330382858376184,0.01710422666954443,-0.0158824961931484,1756822329.090148
2.1176480009999996,-0.4929214556,9.9828558872,-0.01832595714594046,0.023212879051524585,-0.012217304763960306,1756822329.098113
2.0793628394,-0.4881358104,9.9804630646,0.003665191429188092,-0.007330382858376184,-0.009773843811168246,1756822329.106067
2.0434705004,-0.5216353268,9.9684989516,0.014660765716752368,0.006108652381980153,-0.012217304763960306,1756822329.114089
2.0147566292,-0.49531427819999996,9.9469635482,0.006108652381980153,-0.004886921905584123,-0.013439035240356337,1756822329.122124
2.0027925162,-0.44027935839999993,9.841679353799998,0.03787364476827695,-0.02076941809873252,-0.024434609527920613,1756822329.130115
1.9932212257999997,-0.45942193919999996,9.803394192199999,0.007330382858376184,-0.014660765716752368,-0.029321531433504737,1756822329.138110
1.9549360641999998,-0.4354937132,9.753144917599998,0.0024434609527920616,-0.003665191429188092,-0.01710422666954443,1756822329.146143
1.9645073545999998,-0.4378865357999999,9.7244310464,0.01710422666954443,-0.03665191429188092,-0.026878070480712675,1756822329.154090
1.9836499354,-0.44267218099999994,9.738787982,-0.009773843811168246,-0.035430183815484885,0.0024434609527920616,1756822329.162111
2.0003996936,-0.44027935839999993,9.7818587888,0.019547687622336492,-0.03420845333908886,-0.023212879051524585,1756822329.170110
2.0506489682,-0.4761716974,9.803394192199999,-0.006108652381980153,-0.0158824961931484,-0.03298672286269283,1756822329.178121
1.9956140484,-0.5216353268,9.8680004024,0.023212879051524585,-0.040317105721069016,-0.03298672286269283,1756822329.186085
2.0386848551999996,-0.5790630692,9.846464998999998,0.012217304763960306,-0.04276056667386108,-0.023212879051524585,1756822329.194131
2.045863323,-0.6293123438,9.851250644199999,0.029321531433504737,-0.04642575810304917,-0.05619960191421741,1756822329.202156
2.0410776778,-0.6628118601999999,9.8847501606,0.0439822971502571,-0.023212879051524585,0.0,1756822329.210086
2.0578274359999997,-0.7106683122,9.918249676999999,0.019547687622336492,-0.029321531433504737,-0.03420845333908886,1756822329.218132
2.0889341298,-0.7322037155999999,9.9469635482,0.048869219055841226,-0.02076941809873252,-0.02076941809873252,1756822329.226100
2.093719775,-0.7369893607999999,9.927820967399999,0.030543261909900768,-0.039095375244672985,-0.02199114857512855,1756822329.234114
2.0745771942,-0.7345965381999999,9.9206424996,0.040317105721069016,-0.0635299847725936,-0.03298672286269283,1756822329.242082
2.0578274359999997,-0.7298108929999999,9.9349994352,0.06230825429619756,-0.03298672286269283,-0.023212879051524585,1756822329.250108
2.0482561456,-0.6891329088,9.9158568544,0.02199114857512855,-0.0439822971502571,-0.023212879051524585,1756822329.258090
2.0482561456,-0.6795616184,9.882357337999998,0.026878070480712675,-0.0635299847725936,-0.019547687622336492,1756822329.266110
2.0745771942,-0.6843472636,9.8727860476,-0.006108652381980153,-0.04153883619746504,-0.023212879051524585,1756822329.274125
2.0506489682,-0.6915257314,9.8608219346,0.012217304763960306,-0.059864793343405505,-0.009773843811168246,1756822329.282084
2.045863323,-0.7274180704000001,9.8368937086,-0.003665191429188092,-0.06597344572538566,-0.003665191429188092,1756822329.290097
2.0793628394,-0.7776673449999999,9.7651090306,-0.028099800957108706,-0.06597344572538566,0.012217304763960306,1756822329.298133
2.1439690496,-0.861416136,9.7579305628,0.003665191429188092,-0.07208209810736581,-0.006108652381980153,1756822329.306087
2.1104695332,-0.8805587167999999,9.6861458848,0.0,-0.08185594191853406,0.023212879051524585,1756822329.314089
2.1511475173999997,-0.8877371845999998,9.674181771799999,0.004886921905584123,-0.0635299847725936,-0.006108652381980153,1756822329.322093
2.201396792,-0.8398807326,9.6981099978,0.03665191429188092,-0.06963863715457375,0.006108652381980153,1756822329.330119
2.213360905,-0.7561319416,9.7938229018,0.009773843811168246,-0.04520402762665313,0.035430183815484885,1756822329.338091
2.2755742926,-0.6891329088,9.923035322199999,0.025656340004316644,-0.007330382858376184,0.0,1756822329.346094
2.2660030021999997,-0.6412764568,9.9924271776,-0.0024434609527920616,0.013439035240356337,0.019547687622336492,1756822329.354097
2.2803599377999997,-0.5862415369999999,10.0689975008,-0.019547687622336492,0.035430183815484885,-0.0158824961931484,1756822329.362114
2.2229321954,-0.5862415369999999,10.1024970172,0.0024434609527920616,0.04642575810304917,0.006108652381980153,1756822329.370110
2.1870398563999998,-0.5599204884,10.0929257268,-0.026878070480712675,0.03298672286269283,0.025656340004316644,1756822329.378118
2.1200408235999997,-0.5072783912,10.013962581,-0.012217304763960306,0.03665191429188092,-0.03298672286269283,1756822329.386283
2.0602202586,-0.5264209719999999,9.9349994352,-0.006108652381980153,0.003665191429188092,0.0,1756822329.394171
2.0410776778,-0.4881358104,9.8608219346,-0.012217304763960306,-0.023212879051524585,-0.0158824961931484,1756822329.402096
2.021935097,-0.47138605219999996,9.822536773,0.013439035240356337,-0.08674286382411818,0.003665191429188092,1756822329.410109
2.0745771942,-0.4354937132,9.8010013696,0.012217304763960306,-0.059864793343405505,0.0,1756822329.418086
2.1104695332,-0.418743955,9.812965482600001,0.003665191429188092,-0.07696902001294993,0.0024434609527920616,1756822329.426110
2.1631116304,-0.418743955,9.798608546999999,0.007330382858376184,-0.05619960191421741,-0.009773843811168246,1756822329.434158
2.2181465501999997,-0.406779842,9.810572659999998,0.010995574287564275,-0.04642575810304917,-0.029321531433504737,1756822329.442073
2.2588245344,-0.38524443859999996,9.839286531199999,0.02076941809873252,-0.013439035240356337,-0.010995574287564275,1756822329.450081
2.2348963083999998,-0.406779842,9.870393224999999,0.006108652381980153,0.012217304763960306,-0.01832595714594046,1756822329.458095
2.2205393728,-0.4378865357999999,9.8680004024,0.0,0.03298672286269283,-0.013439035240356337,1756822329.466189
2.189432679,-0.4354937132,9.853643466799998,-0.007330382858376184,0.03298672286269283,-0.05742133239061344,1756822329.474102
2.1391834043999998,-0.45224347139999993,9.877571692799998,0.007330382858376184,0.019547687622336492,-0.025656340004316644,1756822329.482074
2.0291135648,-0.4354937132,9.8440721764,0.030543261909900768,0.03665191429188092,-0.04153883619746504,1756822329.490094
1.986042758,-0.47377887479999997,9.803394192199999,-0.013439035240356337,0.039095375244672985,-0.013439035240356337,1756822329.498098
1.9405791286,-0.5072783912,9.798608546999999,0.019547687622336492,-0.009773843811168246,-0.0024434609527920616,1756822329.506078
1.926222193,-0.5144568589999999,9.7938229018,0.003665191429188092,-0.02076941809873252,-0.029321531433504737,1756822329.514094
1.9597217094000001,-0.5335994398,9.762716207999999,0.003665191429188092,-0.03420845333908886,-0.035430183815484885,1756822329.522074
1.9788642901999998,-0.5479563754,9.846464998999998,0.03665191429188092,-0.039095375244672985,-0.0158824961931484,1756822329.530099
2.0171494518,-0.5551348432,9.913464031799998,-0.004886921905584123,-0.030543261909900768,-0.03298672286269283,1756822329.538099
2.1104695332,-0.5647061336,9.9445707256,0.019547687622336492,-0.023212879051524585,-0.04276056667386108,1756822329.546069
2.1152551784,-0.6173482307999999,9.963713306399999,0.013439035240356337,-0.029321531433504737,-0.028099800957108706,1756822329.554071
2.1080767106,-0.6412764568,10.001998467999998,0.0024434609527920616,-0.040317105721069016,-0.039095375244672985,1756822329.562079
2.1607188078,-0.6652046828,10.006784113199998,0.025656340004316644,-0.03298672286269283,-0.03298672286269283,1756822329.570083
2.141576227,-0.7465606511999999,9.994820000199999,0.0024434609527920616,-0.0012217304763960308,-0.0317649923862968,1756822329.578070
2.1367905817999997,-0.7680960546,9.9517491934,0.014660765716752368,-0.039095375244672985,-0.04153883619746504,1756822329.586096
2.1320049365999996,-0.7752745223999999,9.918249676999999,0.04276056667386108,-0.026878070480712675,-0.06230825429619756,1756822329.594090
2.1128623558,-0.7489534737999999,9.8727860476,0.029321531433504737,-0.04276056667386108,-0.03665191429188092,1756822329.602103
2.1248264688,-0.7082754896,9.8847501606,0.06230825429619756,-0.06597344572538566,-0.04520402762665313,1756822329.610073
2.1559331626,-0.6269195211999999,9.8919286284,0.025656340004316644,-0.04276056667386108,-0.039095375244672985,1756822329.618139
2.1583259852,-0.5838487144,9.851250644199999,0.02076941809873252,-0.05009094953223726,-0.040317105721069016,1756822329.626085
2.1798613886,-0.5886343596,9.8799645154,0.0158824961931484,-0.04153883619746504,-0.07208209810736581,1756822329.634088
2.213360905,-0.6460621019999999,9.822536773,0.014660765716752368,-0.05253441048502932,-0.019547687622336492,1756822329.642118
2.2420747762,-0.6604190376,9.786644434,-0.012217304763960306,-0.05009094953223726,-0.05253441048502932,1756822329.650135
2.2588245344,-0.6987041992,9.7340023368,0.003665191429188092,-0.058643062867009474,-0.02199114857512855,1756822329.658085
2.249253244,-0.7154539573999998,9.7220382238,0.013439035240356337,-0.058643062867009474,-0.023212879051524585,1756822329.666110
2.2325034857999997,-0.7202396025999999,9.714859756,-0.013439035240356337,-0.03665191429188092,-0.02199114857512855,1756822329.674120
2.2109680824,-0.6891329088,9.726823868999999,-0.004886921905584123,-0.023212879051524585,-0.03298672286269283,1756822329.682120
2.249253244,-0.6364908116,9.7196454012,-0.019547687622336492,0.0,0.023212879051524585,1756822329.690142
2.2109680824,-0.5814558917999999,9.7770731436,-0.012217304763960306,0.0317649923862968,0.013439035240356337,1756822329.698110
2.2037896146,-0.5575276658,9.8201439504,-0.009773843811168246,0.03420845333908886,-0.035430183815484885,1756822329.706101
2.1678972756,-0.5312066172,9.8991070962,-0.028099800957108706,0.05253441048502932,-0.006108652381980153,1756822329.714201
2.1583259852,-0.5335994398,9.923035322199999,-0.026878070480712675,0.07819075048934597,-0.009773843811168246,1756822329.722120
2.0913269523999998,-0.5096712137999999,9.966106128999998,-0.013439035240356337,0.058643062867009474,0.02199114857512855,1756822329.730092
2.0554346134,-0.5383850849999999,9.963713306399999,-0.029321531433504737,0.04642575810304917,0.003665191429188092,1756822329.738102
2.0315063874,-0.5335994398,9.942177903,0.003665191429188092,0.03298672286269283,-0.012217304763960306,1756822329.746128
2.0195422744,-0.5359922624,9.913464031799998,-0.029321531433504737,0.0158824961931484,-0.039095375244672985,1756822329.754092
2.0650059038,-0.6029912951999999,9.9206424996,-0.0158824961931484,-0.009773843811168246,-0.03298672286269283,1756822329.762083
2.0650059038,-0.6029912951999999,9.8967142736,0.007330382858376184,-0.035430183815484885,-0.003665191429188092,1756822329.770110
2.1320049365999996,-0.6197410534,9.9349994352,0.013439035240356337,-0.05009094953223726,-0.025656340004316644,1756822329.778092
2.1870398563999998,-0.5982056499999999,9.958927661199999,0.024434609527920613,-0.05009094953223726,-0.05497787143782138,1756822329.786107
2.2468604213999996,-0.5670989562,9.9876415324,0.03665191429188092,-0.0439822971502571,-0.0158824961931484,1756822329.794136
2.2444675987999996,-0.49531427819999996,9.961320483799998,0.02076941809873252,-0.024434609527920613,-0.07452555906015787,1756822329.802108
2.2109680824,-0.45463629399999994,9.882357337999998,0.030543261909900768,-0.040317105721069016,-0.029321531433504737,1756822329.810095
2.1966111468,-0.3924229064,9.8321080634,-0.0024434609527920616,0.003665191429188092,-0.061086523819801536,1756822329.818086
2.1343977592,-0.36849468039999994,9.762716207999999,0.02199114857512855,0.013439035240356337,-0.039095375244672985,1756822329.826085
2.1056838879999997,-0.3900300838,9.7459664498,0.003665191429188092,0.02199114857512855,-0.039095375244672985,1756822329.834193
2.0650059038,-0.36849468039999994,9.753144917599998,0.003665191429188092,0.0317649923862968,-0.029321531433504737,1756822329.842142
2.0027925162,-0.33738798659999997,9.803394192199999,0.019547687622336492,0.02076941809873252,-0.04276056667386108,1756822329.850087
1.9764714676,-0.36370903520000003,9.9038927414,0.0024434609527920616,0.05497787143782138,-0.04520402762665313,1756822329.858130
1.9334006607999998,-0.38524443859999996,9.925428144799998,0.019547687622336492,0.01710422666954443,-0.02199114857512855,1756822329.866096
1.9286150156,-0.3900300838,9.923035322199999,0.023212879051524585,-0.0012217304763960308,-0.05131268000863329,1756822329.874119
1.9214365477999997,-0.4331008906,9.9038927414,-0.009773843811168246,-0.01832595714594046,-0.029321531433504737,1756822329.882091
1.938186306,-0.5647061336,9.901499918799999,0.02076941809873252,-0.024434609527920613,-0.03665191429188092,1756822329.890137
2.0027925162,-0.6675975054,9.9206424996,0.009773843811168246,-0.03298672286269283,-0.039095375244672985,1756822329.898135
2.021935097,-0.7202396025999999,9.923035322199999,0.03298672286269283,-0.01710422666954443,-0.02076941809873252,1756822329.906088
2.0434705004,-0.7130611348,9.925428144799998,0.019547687622336492,-0.039095375244672985,-0.05497787143782138,1756822329.914147
2.0554346134,-0.7417750059999999,9.901499918799999,0.010995574287564275,-0.04276056667386108,-0.029321531433504737,1756822329.922126
2.0913269523999998,-0.693918554,9.870393224999999,0.026878070480712675,-0.04642575810304917,-0.012217304763960306,1756822329.930092
2.1056838879999997,-0.7393821834,9.853643466799998,0.025656340004316644,-0.05375614096142535,-0.04276056667386108,1756822329.938100
2.129612114,-0.7441678285999999,9.8321080634,0.03665191429188092,-0.05009094953223726,-0.012217304763960306,1756822329.946129
2.1463618722,-0.7489534737999999,9.851250644199999,0.03298672286269283,-0.05497787143782138,-0.035430183815484885,1756822329.954094
2.1367905817999997,-0.7465606511999999,9.812965482600001,0.023212879051524585,-0.040317105721069016,-0.03420845333908886,1756822329.962099
2.1511475173999997,-0.7537391189999999,9.8440721764,0.04276056667386108,-0.06475171524898962,-0.01710422666954443,1756822329.970079
2.1391834043999998,-0.7441678285999999,9.829715240799999,0.0024434609527920616,-0.04276056667386108,-0.0024434609527920616,1756822329.978068
2.1678972756,-0.7441678285999999,9.7459664498,0.003665191429188092,-0.08307767239493008,-0.0158824961931484,1756822329.986103
2.189432679,-0.7513462964,9.7220382238,0.003665191429188092,-0.06963863715457375,-0.0024434609527920616,1756822329.994142
2.1942183242,-0.7441678285999999,9.7076812882,-0.026878070480712675,-0.05253441048502932,-0.012217304763960306,1756822330.002102
2.2205393728,-0.7417750059999999,9.7005028204,0.0158824961931484,-0.03298672286269283,-0.009773843811168246,1756822330.010118
2.2588245344,-0.7561319416,9.7244310464,-0.009773843811168246,0.0,0.003665191429188092,1756822330.018106
2.2636101795999997,-0.7274180704000001,9.7842516114,0.003665191429188092,0.006108652381980153,-0.007330382858376184,1756822330.026112
2.2707886474,-0.7154539573999998,9.858429112,-0.0158824961931484,0.007330382858376184,0.019547687622336492,1756822330.034111
2.2348963083999998,-0.681954441,9.913464031799998,-0.019547687622336492,0.02199114857512855,-0.014660765716752368,1756822330.042097
2.189432679,-0.5958128274,9.9469635482,0.007330382858376184,0.025656340004316644,0.039095375244672985,1756822330.050186
2.141576227,-0.5886343596,9.9828558872,-0.023212879051524585,0.012217304763960306,0.02076941809873252,1756822330.058070
2.081755662,-0.5264209719999999,10.033105161799998,-0.039095375244672985,0.023212879051524585,0.003665191429188092,1756822330.066135
2.0841484845999996,-0.5192425042,10.001998467999998,-0.02199114857512855,0.026878070480712675,0.0,1756822330.074122
2.0650059038,-0.5264209719999999,10.0115697584,-0.04520402762665313,0.04153883619746504,-0.025656340004316644,1756822330.082101
2.0482561456,-0.5240281494,9.9469635482,-0.03298672286269283,0.0,0.047647488579445195,1756822330.090113
2.0099709839999997,-0.4761716974,9.9110712092,-0.048869219055841226,-0.014660765716752368,-0.019547687622336492,1756822330.098138
2.03389921,-0.5144568589999999,9.853643466799998,-0.048869219055841226,-0.029321531433504737,-0.003665191429188092,1756822330.106088
2.0291135648,-0.5383850849999999,9.8010013696,-0.01832595714594046,-0.058643062867009474,0.012217304763960306,1756822330.114078
2.0721843715999997,-0.6197410534,9.762716207999999,-0.05253441048502932,-0.06230825429619756,-0.02076941809873252,1756822330.122107
2.1200408235999997,-0.6675975054,9.8010013696,0.023212879051524585,-0.07208209810736581,0.019547687622336492,1756822330.130088
2.2085752598,-0.6532405698,9.8560362894,0.029321531433504737,-0.03665191429188092,-0.009773843811168246,1756822330.138101
2.237289131,-0.5838487144,9.9326066126,0.039095375244672985,-0.03420845333908886,-0.025656340004316644,1756822330.146329
2.2325034857999997,-0.47856452,10.001998467999998,0.0635299847725936,-0.0158824961931484,-0.02199114857512855,1756822330.154120
2.2348963083999998,-0.4019941968,10.009176935799998,0.03665191429188092,-0.013439035240356337,-0.05253441048502932,1756822330.162141
2.1487546948,-0.37328032559999996,9.999605645399999,0.030543261909900768,0.009773843811168246,-0.039095375244672985,1756822330.170093
2.1272192914,-0.334995164,9.923035322199999,0.0,0.009773843811168246,-0.028099800957108706,1756822330.178115
2.0386848551999996,-0.3445664544,9.8177511278,-0.008552113334772215,0.01832595714594046,-0.04520402762665313,1756822330.186096
2.0243279195999997,-0.31345976059999997,9.7962157244,-0.010995574287564275,-0.0012217304763960308,-0.019547687622336492,1756822330.194106
1.9740786449999999,-0.32542387359999997,9.8057870148,0.013439035240356337,-0.01710422666954443,-0.03298672286269283,1756822330.202141
1.986042758,-0.33738798659999997,9.8440721764,0.013439035240356337,-0.013439035240356337,-0.007330382858376184,1756822330.210086
1.9764714676,-0.39720855159999996,9.887142983199999,0.02076941809873252,-0.035430183815484885,-0.040317105721069016,1756822330.218107
1.9764714676,-0.39960137419999997,9.930213789999998,0.04276056667386108,-0.05375614096142535,-0.03298672286269283,1756822330.226069
2.0195422744,-0.42352960019999997,9.923035322199999,0.025656340004316644,-0.07208209810736581,-0.013439035240356337,1756822330.234082
2.0315063874,-0.5742774239999999,9.9756774194,0.007330382858376184,-0.07208209810736581,-0.030543261909900768,1756822330.242117
2.0434705004,-0.7010970218,9.9828558872,0.04642575810304917,-0.0635299847725936,0.02076941809873252,1756822330.250147
1.9645073545999998,-0.7704888771999999,9.9517491934,0.01710422666954443,-0.04642575810304917,0.009773843811168246,1756822330.258080
1.902293967,-0.8303094421999999,9.9517491934,0.03665191429188092,-0.07208209810736581,0.04276056667386108,1756822330.266093
1.8448662246,-0.9020941201999999,9.8608219346,0.013439035240356337,-0.039095375244672985,0.04642575810304917,1756822330.274087
1.7635102561999998,-0.9499505721999999,9.8321080634,0.02199114857512855,-0.05742133239061344,0.08552113334772216,1756822330.282083
1.6725829974,-0.9619146851999999,9.870393224999999,0.04642575810304917,-0.08063421144213803,0.08185594191853406,1756822330.290108
1.6247265453999997,-0.9954142015999999,9.8560362894,0.05009094953223726,-0.09285151620609834,0.10995574287564276,1756822330.298113
1.5314064639999998,-0.993021379,9.8608219346,0.040317105721069016,-0.1356120828799594,0.11728612573401895,1756822330.306094
1.5242279962,-0.9762716208,9.834500885999999,0.048869219055841226,-0.16859880574265224,0.11239920382843482,1756822330.314127
1.5553346899999998,-1.0384850084,9.7435736272,0.009773843811168246,-0.20769418098732523,0.14294246573833558,1756822330.322086
1.5696916256,-1.100698396,9.628718142399999,0.0635299847725936,-0.2834414705238791,0.12461650859239512,1756822330.330125
1.6654045296,-1.1222337993999998,9.576076045199999,0.04276056667386108,-0.3262020546510327,0.17226399717184032,1756822330.338083
1.8089738855999997,-1.1413763802,9.547362174,0.05009094953223726,-0.33231070703301285,0.1392772743091475,1756822330.346098
1.9812571127999998,-1.1318050897999998,9.571290399999999,0.06963863715457375,-0.32864549815053223,0.17837264955382048,1756822330.354121
2.1367905817999997,-1.0528419439999999,9.6095755616,0.05253441048502932,-0.32986722862692824,0.158824961931484,1756822330.362088
2.2947168734,-0.9523433948,9.6885387074,0.0757472895365539,-0.32009338481576005,0.18203784098300857,1756822330.370072
2.4023938904,-0.861416136,9.750752095,0.05619960191421741,-0.30421088862261164,0.1954768762233649,1756822330.378132
2.5052852621999997,-0.8327022648,9.887142983199999,0.0757472895365539,-0.26633724385433466,0.20769418098732523,1756822330.386088
2.5674986497999996,-0.8039883936,10.0546405652,0.0757472895365539,-0.2431243648028101,0.19303341527057286,1756822330.394098
2.5890340532000002,-0.7728816997999999,10.121639597999998,0.10140362954087054,-0.21746802479849348,0.22479840765686965,1756822330.402133
2.5914268758,-0.7393821834,10.1288180658,0.06963863715457375,-0.1759291886010284,0.21380283336930536,1756822330.410109
2.6177479243999997,-0.6508477471999999,10.0235338714,0.08307767239493008,-0.1673770752662562,0.18570303241219668,1756822330.418067
2.6153551017999996,-0.6053841178,9.927820967399999,0.05253441048502932,-0.158824961931484,0.2345722514680379,1756822330.426136
2.6967110702,-0.6364908116,9.8368937086,0.08063421144213803,-0.17837264955382048,0.1942551457469689,1756822330.434077
2.7493531674,-0.6436692794,9.7770731436,0.09529497715889039,-0.19669860669976094,0.17226399717184032,1756822330.442086
2.8689942973999996,-0.5551348432,9.7363951594,0.11239920382843482,-0.18570303241219668,0.20158552860534507,1756822330.450084
2.943171798,-0.44027935839999993,9.753144917599998,0.10873401239924674,-0.16004669240788003,0.16615534478986016,1756822330.458071
2.979064137,-0.2919243572,9.7962157244,0.11484266478122689,-0.1514945790731078,0.18448130193580065,1756822330.466082
2.9647072013999995,-0.1411765334,9.7555377402,0.10018189906447451,-0.11972958668681101,0.1466076571675237,1756822330.474082
3.0005995404,-0.0693918554,9.726823868999999,0.025656340004316644,-0.0635299847725936,0.16982053621904827,1756822330.482096
2.9240292171999998,-0.0215354034,9.580861690399999,0.03665191429188092,-0.010995574287564275,0.1747074581246324,1756822330.490380
2.8642086522,-0.0023928226,9.5617191096,-0.006108652381980153,0.06230825429619756,0.14049900478554353,1756822330.498078
2.8689942973999996,0.0,9.5258267706,-0.026878070480712675,0.12461650859239512,0.13683381335635544,1756822330.506082
2.7732813933999996,-0.0526420972,9.5688975774,-0.03298672286269283,0.1673770752662562,0.13316862192716733,1756822330.514065
2.7110680057999996,-0.11964113,9.549754996599999,-0.06841690667817772,0.21624629432209744,0.1111774733520388,1756822330.522090
2.5866412305999997,-0.19142580799999998,9.5688975774,-0.058643062867009474,0.26878070480712674,0.13194689145077132,1756822330.530087
2.4574288101999997,-0.28713871199999996,9.6167540294,-0.06475171524898962,0.3176499413162605,0.1075122819228507,1756822330.538107
2.3114666315999997,-0.47856452,9.6885387074,-0.029321531433504737,0.3274237676741362,0.1075122819228507,1756822330.546077
2.1822542112,-0.5670989562,9.7483592724,-0.0317649923862968,0.35552358608453744,0.10995574287564276,1756822330.554068
2.0147566292,-0.6364908116,9.8440721764,-0.009773843811168246,0.3530801076784529,0.06475171524898962,1756822330.562111
1.8783657409999999,-0.6460621019999999,10.0163554036,0.006108652381980153,0.34819320322616126,0.07819075048934597,1756822330.570063
1.7324035624,-0.6340979889999999,10.1479606466,0.05009094953223726,0.33231070703301285,0.06475171524898962,1756822330.578068
1.6342978357999998,-0.6005984726,10.222138147199999,0.013439035240356337,0.2858849140233787,-0.0024434609527920616,1756822330.586119
1.5840485612,-0.6149554081999999,10.301101292999999,0.0158824961931484,0.21258110289290932,0.003665191429188092,1756822330.594098
1.5385849318,-0.6197410534,10.3346008094,-0.0024434609527920616,0.1551597705022959,-0.03787364476827695,1756822330.602072
1.5002997702,-0.6197410534,10.3920285518,0.013439035240356337,0.07086036763096977,-0.01710422666954443,1756822330.610100
1.5242279962,-0.6412764568,10.4015998422,0.003665191429188092,0.009773843811168246,-0.047647488579445195,1756822330.618052
1.5601203352,-0.6293123438,10.289137179999999,0.024434609527920613,-0.05619960191421741,-0.079412480965742,1756822330.626146
1.6797614652,-0.6101697629999999,10.164710404800001,-0.009773843811168246,-0.12950343049797924,-0.14049900478554353,1756822330.634087
1.7730815465999998,-0.6149554081999999,10.085747258999998,0.03665191429188092,-0.21991148575128552,-0.10873401239924674,1756822330.642110
1.9357934833999997,-0.6675975054,9.985248709799999,0.01710422666954443,-0.2797762965479835,-0.15027284859671178,1756822330.650139
2.129612114,-0.6963113766,9.8249295956,-0.0024434609527920616,-0.3347541505325124,-0.17226399717184032,1756822330.658085
2.285145583,-0.7345965381999999,9.607182738999999,0.0024434609527920616,-0.3824016391119576,-0.1832595714594046,1756822330.666111
2.4430718746,-0.8183453291999999,9.4181497536,0.039095375244672985,-0.43127084071450633,-0.22113321622768156,1756822330.674098
2.6584259086,-0.8805587167999999,9.281758865399999,0.023212879051524585,-0.43371431912059094,-0.24801128670839426,1756822330.682140
2.9048866363999997,-0.873380249,9.320044027,0.10873401239924674,-0.4422664324553631,-0.2309070600388498,1756822330.690080
3.0843483314,-0.8183453291999999,9.5282195932,0.09896016858807849,-0.42394049276271517,-0.18692476288859272,1756822330.698125
3.2446674455999998,-0.7130611348,9.8249295956,0.13194689145077132,-0.4117231705454623,-0.2345722514680379,1756822330.706112
3.3762726885999994,-0.5742774239999999,10.085747258999998,0.11972958668681101,-0.36285396894291366,-0.2272418686096617,1756822330.714154
3.4193434953999997,-0.42352960019999997,10.2197453246,0.09896016858807849,-0.3152064454568834,-0.21258110289290932,1756822330.722121
3.4767712378,-0.2727817764,10.2580304862,0.0635299847725936,-0.26022859147235455,-0.22846359908605773,1756822330.730148
3.4911281733999995,-0.2225325018,10.1383893562,0.009773843811168246,-0.22113321622768156,-0.21380283336930536,1756822330.738095
3.5078779316,-0.25124637299999997,9.846464998999998,-0.012217304763960306,-0.19792033717615698,-0.21380283336930536,1756822330.746100
3.4719855926,-0.3565305674,9.5401837062,-0.003665191429188092,-0.2040289895581371,-0.1832595714594046,1756822330.754111
3.5150563993999997,-0.48574298779999997,9.4444708022,0.007330382858376184,-0.19181168479417682,-0.1747074581246324,1756822330.762144
3.5150563993999997,-0.5742774239999999,9.4085784632,0.06719517620178168,-0.1942551457469689,-0.1832595714594046,1756822330.770088
3.5389846253999995,-0.5982056499999999,9.427721044,0.079412480965742,-0.18203784098300857,-0.14782938764391973,1756822330.778094
3.5150563993999997,-0.5024927459999999,9.477970318599999,0.079412480965742,-0.14538592669112765,-0.1942551457469689,1756822330.786119
3.4959138186,-0.45463629399999994,9.458827737799998,0.04642575810304917,-0.13072516097437528,-0.13805554383275148,1756822330.794111
3.4839497056,-0.41156548719999997,9.4612205604,0.0,-0.08674286382411818,-0.17226399717184032,1756822330.802108
3.3882368015999997,-0.39720855159999996,9.451649269999999,-0.01710422666954443,-0.03420845333908886,-0.11728612573401895,1756822330.810182
3.3164521235999995,-0.37088750299999995,9.401399995399998,-0.05497787143782138,0.0024434609527920616,-0.15638150097869194,1756822330.818077
3.1944181709999997,-0.3756731482,9.415756930999999,-0.0757472895365539,0.061086523819801536,-0.14294246573833558,1756822330.826120
3.0580272828,-0.2967100024,9.4612205604,-0.06230825429619756,0.0757472895365539,-0.16982053621904827,1756822330.834145
2.943171798,-0.2656033086,9.475577496,-0.12095131716320703,0.07086036763096977,-0.18936822384138474,1756822330.842089
2.835494781,-0.23928226,9.518648302799999,-0.06230825429619756,0.07330382858376185,-0.12339477811599911,1756822330.850092
2.7541388125999995,-0.2440679052,9.6167540294,-0.08185594191853406,0.06841690667817772,-0.1759291886010284,1756822330.858105
2.656033086,-0.2536391956,9.848857821600001,-0.008552113334772215,0.05253441048502932,-0.14782938764391973,1756822330.866110
2.6488546182,-0.1531406464,10.1264252432,-0.025656340004316644,0.025656340004316644,-0.16004669240788003,1756822330.874091
2.6392833278,-0.0191425808,10.449456294199999,-0.003665191429188092,-0.023212879051524585,-0.15027284859671178,1756822330.882089
2.6727828442,0.10289137179999999,10.626525166599999,-0.030543261909900768,-0.06230825429619756,-0.16126842288427606,1756822330.890104
2.7589244578,0.2225325018,10.5930256502,-0.05253441048502932,-0.158824961931484,-0.18448130193580065,1756822330.898121
2.8091737323999997,0.3541377448,10.4374921812,-0.04642575810304917,-0.2040289895581371,-0.15271630954950383,1756822330.906087
2.931207685,0.5000999234,10.2676017766,-0.059864793343405505,-0.30543261909900765,-0.10995574287564276,1756822330.914136
3.0939196217999996,0.7776673449999999,10.1072826624,-0.06963863715457375,-0.3616322035599326,-0.12461650859239512,1756822330.922077
3.2015966387999995,0.9858429112,9.923035322199999,-0.05253441048502932,-0.40805796166298175,-0.05497787143782138,1756822330.930091
3.4002009145999996,1.1916256548,9.753144917599998,-0.13316862192716733,-0.42149701435663056,-0.026878070480712675,1756822330.938188
3.5676984966,1.3232308977999998,9.6239324972,-0.1710422666954443,-0.44837510229063576,0.012217304763960306,1756822330.946090
3.6849468039999995,1.2945170266000001,9.521041125399998,-0.2272418686096617,-0.42394049276271517,0.08552113334772216,1756822330.954109
3.9050864832,1.2442677519999998,9.4085784632,-0.2565634000431664,-0.3750712562535814,0.0757472895365539,1756822330.962182
4.0223347905999995,1.0456634761999999,9.248259349,-0.26633724385433466,-0.30909779307490326,0.08918632477691024,1756822330.970082
4.1970108404,0.861416136,8.992227330799999,-0.30298917559950816,-0.24923301718479024,0.059864793343405505,1756822330.978106
4.3118663252,0.6245266986,8.5328053916,-0.3274237676741362,-0.15760323145508795,0.09407324668249435,1756822330.986127
4.429114632599999,0.2727817764,8.2121671632,-0.3225368457685521,-0.040317105721069016,0.06475171524898962,1756822330.994138
4.486542375,-0.0646062102,8.183453292,-0.339641054984804,0.1111774733520388,0.04520402762665313,1756822331.002093
4.493720842799999,-0.4378865357999999,8.372486277399998,-0.27611108766550296,0.2712241657599188,0.003665191429188092,1756822331.010084
4.4410787456,-0.6723831506,8.7266240222,-0.26145032194875056,0.49235736453430784,-0.009773843811168246,1756822331.018095
4.319044793,-0.8590233133999999,9.080761767,-0.26267205242514663,0.659734439800564,-0.09407324668249435,1756822331.026150
4.2113677759999995,-0.8949156524,9.5066841898,-0.2577851305195625,0.8405505677604691,-0.12095131716320703,1756822331.034084
3.9936209193999996,-0.9451649269999999,9.8273224182,-0.3152064454568834,0.9993754947853681,-0.1624901533606721,1756822331.042179
3.6873396266,-0.9547362173999999,9.9517491934,-0.30909779307490326,1.1447613865699107,-0.21135937241651329,1756822331.050077
3.3044880105999996,-0.9403792818,10.0474620974,-0.34330626386728463,1.254717181805431,-0.2565634000431664,1756822331.058092
2.8546373618,-0.9667003303999999,10.083354436399999,-0.36896258641830876,1.3206906100775242,-0.37140608227768585,1756822331.066128
2.4095723582,-0.9379864591999999,10.042676452199998,-0.4386012235728825,1.3829988643737217,-0.4495968153137393,1756822331.074087
1.8664016279999998,-0.7728816997999999,10.0689975008,-0.4544837546726159,1.4025466043559356,-0.5400048880203381,1756822331.082110
1.3830514628,-0.6675975054,10.145567823999999,-0.4789183642005365,1.3805554034209295,-0.6548475353482724,1756822331.090137
0.9308079913999999,-0.5168496816,10.191031453399999,-0.555887366760194,1.3597860900419523,-0.8197811671150291,1756822331.098101
0.5599204884,-0.5096712137999999,10.2676017766,-0.5729916283363234,1.2803735567163326,-0.9419542147546323,1756822331.106089
0.2560320182,-0.5575276658,10.2125668568,-0.5900958375525753,1.1301006906663285,-1.0641272623942353,1756822331.114195
0.023928225999999997,-0.6771687958,10.0642118556,-0.5803219762881145,0.9786061115932205,-1.1887437709866304,1756822331.122066
-0.059820565,-0.9020941201999999,9.8368937086,-0.5326744877086693,0.7941248096574199,-1.295034252619915,1756822331.130096
-0.0981057266,-1.1629117835999998,9.6885387074,-0.4459316064312587,0.5705481150236538,-1.3732250554691385,1756822331.138133
-0.11006983959999998,-1.4644074311999997,9.6933243526,-0.2919935838586513,0.3518583772020568,-1.4330898662658365,1756822331.146081
0.047856451999999994,-1.5864413838,9.7244310464,-0.0879645943005142,0.17715091907742445,-1.5063936424897206,1756822331.154134
0.167497582,-1.5625131578,9.9086783866,0.05253441048502932,0.0439822971502571,-1.5552629139054395,1756822331.162139
0.2775674216,-1.4261222696,10.351350567599999,0.24801128670839426,-0.05375614096142535,-1.6236797856770324,1756822331.170106
0.31345976059999997,-1.0983055734,10.657631860399999,0.3457497073667842,-0.06475171524898962,-1.696983684073964,1756822331.178085
0.2105683888,-0.6484549246,10.6695959734,0.39828413530510604,0.019547687622336492,-1.6957619710508607,1756822331.186075
0.10289137179999999,-0.16271193679999998,9.9373922578,0.3824016391119576,0.13316862192716733,-1.77517436475014,1756822331.194225
0.040677984199999996,0.1603191142,9.3152583818,0.37384952577718544,0.24923301718479024,-1.822821905689463,1756822331.202117
-0.08135596839999999,0.3565305674,9.410971285799999,0.36529741244241315,0.36041049053682905,-1.813047974611832,1756822331.210085
-0.28713871199999996,0.5431707302,9.913464031799998,0.36529741244241315,0.4728096943652639,-1.8325957145940461,1756822331.218110
-0.6125625856,0.849452023,10.791629926,0.3103195584578843,0.5461135404023182,-1.8264870971186509,1756822331.226094
-0.9667003303999999,1.1533404932,11.858828805599998,0.2272418686096617,0.6047566207226203,-1.814269705088228,1756822331.234128
-1.43569356,1.5122638832,12.4450703426,0.06597344572538566,0.577878532788615,-1.814269705088228,1756822331.242137
-1.9573288867999998,1.7611174335999997,12.5790684082,-0.03298672286269283,0.4960225734167885,-1.8301522710945464,1756822331.250091
-2.285145583,1.9549360641999998,12.0933254204,-0.1282817000215832,0.3640756994193097,-1.8460346974745248,1756822331.258109
-2.4837498588,2.0578274359999997,11.2151595262,-0.1942551457469689,0.10873401239924674,-1.8619172460275508,1756822331.266088
-2.2995025185999998,2.0961125976,10.3322079868,-0.2565634000431664,-0.24801128670839426,-1.8044958961836448,1756822331.274170
-1.9046867896,2.0003996936,9.8201439504,-0.2516764781375823,-0.6218608299388722,-1.783726443178327,1756822331.282079
-1.31605243,1.8711872732,9.8727860476,-0.26022859147235455,-1.0286970436721654,-1.6701055961399591,1756822331.290122
-0.658026215,1.7922241274,10.083354436399999,-0.2541199390903744,-1.3878857688260133,-1.6114625332729493,1756822331.298166
-0.0430708068,1.7252250945999998,10.159924759599999,-0.2993239667170275,-1.6456709691587459,-1.5308282694709339,1756822331.306096
0.5670989562,1.7778671918,10.0235338714,-0.34697143784318024,-1.8216001926663592,-1.4819591376815553,1756822331.314080
1.0600204117999998,1.7802600144,9.690931529999999,-0.4520402762665313,-1.8741344984316335,-1.474628650103424,1756822331.322089
1.5361921092,1.6654045296,9.1956172518,-0.5534438883541094,-1.8631389765039468,-1.3842205948501176,1756822331.330089
1.9453647737999997,1.4285150921999998,8.676374747599999,-0.6487388480597073,-1.7580702078937656,-1.4001031434031437,1756822331.338096
2.2827527604,1.0791629926,8.1978102276,-0.698829849951822,-1.626123229176532,-1.3683381684701394,1756822331.346089
2.5603201819999994,0.6364908116,7.781459095199999,-0.7122688851921785,-1.452637588794758,-1.3267992450062118,1756822331.354117
2.8785655878,0.028713871199999998,7.408178769599999,-0.6756169359937125,-1.3084733576734413,-1.3646729770409514,1756822331.362131
3.1609186545999997,-0.5383850849999999,7.2191457842,-0.5668829410477582,-1.2034044668902126,-1.3243557840534197,1756822331.370103
3.3954152693999995,-1.0815558152,7.223931429399999,-0.4715879638888678,-1.11421819447318,-1.370781611969639,1756822331.378095
3.6538401101999995,-1.5290136414,7.537391189999999,-0.3494149162492648,-1.095892254780532,-1.332908002107947,1756822331.386082
3.9385859995999994,-1.902293967,7.987241838799999,-0.24678955623199822,-1.1276572471668287,-1.3182471665780247,1756822331.394147
4.175475436999999,-2.0578274359999997,8.350950873999999,-0.1551597705022959,-1.1826351360579428,-1.296255983096311,1756822331.402102
4.390829471,-2.0841484845999996,8.640482408599999,-0.07208209810736581,-1.2693780173353533,-1.1728612049803118,1756822331.410087
4.582255279,-2.0147566292,8.7888374098,-0.061086523819801536,-1.4001031434031437,-1.150870143671646,1756822331.418178
4.7904308451999995,-1.8975083218,8.913264185,-0.06597344572538566,-1.5210544780196433,-1.126435516690433,1756822331.426090
4.9674997176,-1.8592231602,9.0424766054,-0.10873401239924674,-1.6371188907305587,-1.0409143484361256,1756822331.434105
5.2378886714,-1.7850456595999997,9.1908316066,-0.17226399717184032,-1.6896532139491254,-1.0543534011297744,1756822331.442167
5.520241738199999,-1.7491533205999998,9.21236701,-0.1942551457469689,-1.6884314834727294,-1.0030407385744338,1756822331.450084
5.773880933799999,-1.6965112234,9.0711904766,-0.26633724385433466,-1.6798794050445423,-1.0250318696962697,1756822331.458074
6.101697629999999,-1.6582260617999998,8.8438723296,-0.27611108766550296,-1.6505578736110373,-1.0262535827193733,1756822331.466101
6.1447684368,-1.6319050132,8.7003029736,-0.3457497073667842,-1.551597739929544,-1.0164797912680825,1756822331.474072
6.642475537599999,-1.5768700934,8.489734584799999,-0.35674531656093345,-1.51128052948872,-0.9566149804713845,1756822331.482086
6.8578295716,-1.4428720278,8.49452023,-0.34819320322616126,-1.3829988643737217,-0.8466591852358643,1756822331.490070
6.9535424756,-1.2945170266000001,8.5758761984,-0.36529741244241315,-1.2034044668902126,-0.8002334271328151,1756822331.498088
6.9774707016,-1.0983055734,8.6356967634,-0.359188760060433,-1.0005972950749342,-0.7648032782239153,1756822331.506106
6.924828604399999,-1.0121639597999998,8.760123538599998,-0.3225368457685521,-0.7782423134642716,-0.6609561702769601,1756822331.514101
6.8889362654,-1.1437692028,9.013762734199998,-0.2834414705238791,-0.5290092788261888,-0.6401867696315201,1756822331.522063
6.766902312799999,-1.3471591237999998,9.080761767,-0.20158552860534507,-0.33231070703301285,-0.5986479159807625,1756822331.530073
6.6185473115999995,-1.5026925928,9.147760799799999,-0.19058995431778078,-0.21624629432209744,-0.5546656537370904,1756822331.538090
6.5252272302,-1.567298803,9.3487578982,-0.12950343049797924,-0.10995574287564276,-0.5436700619962336,1756822331.546127
6.5012990042,-1.4452648504,9.6000042712,-0.10873401239924674,-0.05253441048502932,-0.4886921905584123,1756822331.554079
6.4438712618,-1.2418749294,9.547362174,-0.06597344572538566,-0.01832595714594046,-0.4691444854827833,1756822331.562069
6.3696937612,-1.1030912186,9.0831545896,-0.006108652381980153,-0.023212879051524585,-0.4618141026244071,1756822331.570086
6.3338014222,-1.0145567824,8.4681991814,0.04520402762665313,-0.08918632477691024,-0.4532619892896349,1756822331.578071
6.319444486599999,-0.8470592003999999,8.1499537756,0.16126842288427606,-0.08918632477691024,-0.3848450826114571,1756822331.586098
6.2189459374,-0.5527420206,8.1762748242,0.16615534478986016,-0.08918632477691024,-0.35796702958403703,1756822331.594353
6.053841178,-0.13160524299999998,8.350950873999999,0.14782938764391973,-0.06597344572538566,-0.28955012290585924,1756822331.602101
5.8600225474,0.10289137179999999,8.3437724062,0.019547687622336492,0.003665191429188092,-0.21746802479849348,1756822331.610070
5.6015977066,0.2560320182,8.070990629799999,-0.10995574287564276,0.08429940287132612,-0.12461650859239512,1756822331.618092
5.2977092364,0.24885355039999998,7.5517481256,-0.21746802479849348,0.1466076571675237,-0.05619960191421741,1756822331.626118
5.000999233999999,0.2608176634,7.2406811876,-0.2797762965479835,0.22357667718047364,0.01710422666954443,1756822331.634096
4.6923251186,0.23688943739999999,7.094719008999999,-0.3127630019573839,0.29443706226473587,0.061086523819801536,1756822331.642084
4.366901244999999,0.2919243572,7.125825702799999,-0.32986722862692824,0.33841932450840795,0.035430183815484885,1756822331.650129
4.1012979364,0.3182454058,7.2598237683999995,-0.3824016391119576,0.40317105721069013,0.025656340004316644,1756822331.658089
3.8596228537999995,0.3397808092,7.408178769599999,-0.4117231705454623,0.42149701435663056,-0.035430183815484885,1756822331.666109
3.6897324492,0.28713871199999996,7.566105061199999,-0.4508185457901353,0.3848450826114571,-0.0757472895365539,1756822331.674102
3.6251262389999996,0.1698904046,7.848458128,-0.4874704600820162,0.3152064454568834,-0.18203784098300857,1756822331.682107
3.6705898684,-0.040677984199999996,8.1882389372,-0.4776966337241405,0.23335052099164186,-0.19914206765255302,1756822331.690121
3.7950166436,-0.2823530668,8.4514494232,-0.5009095127756651,0.11484266478122689,-0.3347541505325124,1756822331.698116
3.82851616,-0.6771687958,8.5950187792,-0.4398229889558636,0.003665191429188092,-0.3933972308528144,1756822331.706113
4.0845481781999995,-0.9714859755999999,8.602197247,-0.35552358608453744,-0.11239920382843482,-0.4667010419832837,1756822331.714196
4.3286160834,-1.1868400096,8.6668034572,-0.277332818141899,-0.17837264955382048,-0.5351179486614615,1756822331.722080
4.723431812399999,-1.2921242039999998,8.822336926199998,-0.1673770752662562,-0.2565634000431664,-0.5302310093025848,1756822331.730107
5.0512485086,-1.31605243,9.068797653999999,-0.10262536001726658,-0.31398473243377983,-0.5607743061190706,1756822331.738125
5.458028350599999,-1.8616159827999998,9.511469835,-0.040317105721069016,-0.33841932450840795,-0.5705481150236538,1756822331.746083
5.675775207199999,-1.0743773474,9.511469835,0.03298672286269283,-0.359188760060433,-0.5766568023122189,1756822331.754128
5.790630692,-0.9954142015999999,9.583254513,0.05253441048502932,-0.29688050576423547,-0.5815437067645106,1756822331.762146
5.9270215802,-0.813559684,9.4540420926,0.05742133239061344,-0.21746802479849348,-0.5522221578777133,1756822331.770084
5.9605210966,-0.6771687958,9.267401929799998,0.013439035240356337,-0.18692476288859272,-0.6157521426503069,1756822331.778109
6.0107703712,-0.5934200048,9.0400837828,-0.02076941809873252,-0.14416419621473162,-0.5681046540708617,1756822331.786088
6.0490555328,-0.550349198,8.9276211206,-0.05131268000863329,-0.1111774733520388,-0.5253441048502933,1756822331.794075
6.1160545656,-0.4618147618,8.939585233599999,-0.08552113334772216,-0.08674286382411818,-0.577878532788615,1756822331.802083
6.147161259399999,-0.4163511324,9.0400837828,-0.0879645943005142,-0.06230825429619756,-0.5106833391335408,1756822331.810103
6.206981824400001,-0.4139583098,9.128618219,-0.14416419621473162,-0.05009094953223726,-0.5204571829447091,1756822331.818068
6.2285172278,-0.5766702466,8.997012976,-0.17226399717184032,-0.05375614096142535,-0.5265658353266892,1756822331.826130
6.2979090831999995,-0.9619146851999999,8.685946037999999,-0.20769418098732523,-0.05009094953223726,-0.5253441048502933,1756822331.834100
6.417550213199999,-1.3543375916,8.434699665,-0.1710422666954443,-0.004886921905584123,-0.4850270165825167,1756822331.842135
6.575476504799999,-1.6127624323999998,8.489734584799999,-0.035430183815484885,0.06841690667817772,-0.4043927876870862,1756822331.850091
6.573083682199999,-1.6055839646,8.7768732968,0.06963863715457375,0.16493361431346412,-0.35430182070155636,1756822331.858101
6.5300128754,-1.5481562222,9.064012008799999,0.15760323145508795,0.26389378290154264,-0.31642817593327943,1756822331.866153
6.317051663999999,-1.3926227532,9.2506521716,0.20525072003453315,0.4105014400690663,-0.24678955623199822,1756822331.874087
6.0227344842,-1.1581261384,9.327222494799999,0.2040289895581371,0.558330827712986,-0.17348572764823636,1756822331.882089
5.737988594799999,-0.9499505721999999,9.3296153174,0.23335052099164186,0.679282109969608,-0.1270599695451872,1756822331.890128
5.391029317799999,-0.8087740388,9.296115801,0.14782938764391973,0.8038986709218807,-0.06597344572538566,1756822331.898100
5.0679982668,-0.7848458128,9.2626162846,0.10140362954087054,0.8943067436284794,-0.029321531433504737,1756822331.906105
4.754538506199999,-0.8327022648,9.219545477799999,0.03665191429188092,0.9492845627064234,0.007330382858376184,1756822331.914104
4.3860438258,-0.9116654106,9.152546445,-0.026878070480712675,0.9932668773099729,0.03298672286269283,1756822331.922069
4.1012979364,-0.9834500885999999,9.049655073199999,-0.023212879051524585,0.992045146833577,0.06230825429619756,1756822331.930092
3.816552047,-1.0863414604,8.913264185,-0.09651670763528643,0.9981537817622645,0.07452555906015787,1756822331.938092
3.5676984966,-1.1461620253999998,8.810372813199999,-0.11239920382843482,0.9883799728576813,0.05131268000863329,1756822331.946112
3.3475588174,-1.232303639,8.7290168448,-0.12461650859239512,0.9431759452310281,0.0916297857297023,1756822331.954103
3.1393832512,-1.3088739621999999,8.7840517646,-0.14905111812031574,0.8857545953871222,0.058643062867009474,1756822331.962129
3.0029923629999997,-1.328016543,8.872586200799999,-0.08674286382411818,0.8271115150668203,0.05253441048502932,1756822331.970087
2.8809584103999994,-1.2705888006000001,8.949156524,-0.08307767239493008,0.7513642255302664,0.05131268000863329,1756822331.978106
2.7852455064,-1.0552347666,9.0520478958,-0.06230825429619756,0.698829849951822,0.01710422666954443,1756822331.986119
2.7613172803999997,-0.8327022648,9.2267239456,-0.006108652381980153,0.6279694648675597,0.024434609527920613,1756822331.994108
2.7014967154,-0.5383850849999999,9.343972252999999,-0.013439035240356337,0.5937610115284709,-0.04642575810304917,1756822332.002097
2.6727828442,-0.1746760498,9.2410808812,-0.006108652381980153,0.5326744877086693,-0.09407324668249435,1756822332.010091
2.5531417142,0.19860427579999998,9.0879402348,-0.09285151620609834,0.47647486834115943,-0.1075122819228507,1756822332.018114
2.5435704238,0.47138605219999996,9.0975115252,-0.14905111812031574,0.417831840380735,-0.12095131716320703,1756822332.026098
2.5794627627999995,0.5958128274,9.284151688,-0.19181168479417682,0.37384952577718544,-0.16859880574265224,1756822332.034082
2.644068973,0.7034898444,9.451649269999999,-0.24190263432641407,0.3677408733952052,-0.18936822384138474,1756822332.042065
2.5435704238,0.8829515394,9.3248296722,-0.21746802479849348,0.35430182070155636,-0.17837264955382048,1756822332.050090
2.4478575198,1.0911271056,9.236295236,-0.277332818141899,0.37384952577718544,-0.2504547476611863,1756822332.058114
2.3784656643999997,1.3016954943999999,9.245866526399999,-0.2822197400474831,0.37384952577718544,-0.24190263432641407,1756822332.066144
2.2875384056,1.3950155757999998,9.200402897,-0.33231070703301285,0.377514699753081,-0.21258110289290932,1756822332.074084
2.2061824372,1.4524433181999998,9.2506521716,-0.36896258641830876,0.378736465136062,-0.22479840765686965,1756822332.082113
2.0434705004,1.4763715441999998,9.3631148338,-0.359188760060433,0.3872885784708342,-0.13316862192716733,1756822332.090084
1.8089738855999997,1.5074782379999998,9.422935398799998,-0.3946189613292104,0.4007275788046055,-0.09773843811168245,1756822332.098135
1.6462619487999999,1.4333007374,9.4301138666,-0.4117231705454623,0.3995058483282095,-0.058643062867009474,1756822332.106087
1.3854442854,1.2466605746,9.2578306394,-0.377514699753081,0.43371431912059094,0.02076941809873252,1756822332.114121
1.1485548479999999,1.0073783146,9.169296203199998,-0.3616322035599326,0.43127084071450633,0.047647488579445195,1756822332.122074
0.969093153,0.7274180704000001,9.2410808812,-0.2528982086139784,0.4043927876870862,0.07208209810736581,1756822332.130153
0.8087740388,0.47377887479999997,9.420542576199999,-0.19058995431778078,0.38362336958835364,0.0317649923862968,1756822332.138117
0.705882667,0.2727817764,9.643075077999999,-0.06230825429619756,0.33597588100890846,0.05131268000863329,1756822332.146106
0.6460621019999999,0.09571290399999999,9.8321080634,0.048869219055841226,0.24556782575560218,-0.006108652381980153,1756822332.154141
0.5670989562,-0.10289137179999999,9.8632147572,0.14538592669112765,0.15393804002589986,-0.025656340004316644,1756822332.162114
0.5670989562,-0.203389921,9.664610481399999,0.30909779307490326,0.029321531433504737,-0.1075122819228507,1756822332.170124
0.693918554,-0.3517449222,9.272187575,0.3494149162492648,-0.11484266478122689,-0.1832595714594046,1756822332.178128
0.8446663778,-0.4354937132,8.977870395199998,0.46792275500638725,-0.3005456797401311,-0.23335052099164186,1756822332.186071
1.0815558152,-0.5551348432,9.133403864199998,0.6023130899566581,-0.4740314248416599,-0.30543261909900765,1756822332.194164
1.5146567058,-0.6436692794,9.4564349152,0.7611381042480195,-0.6120869686744114,-0.37140608227768585,1756822332.202148
1.8687944506,-0.3565305674,9.8273224182,0.9297368925373795,-0.7305948423381188,-0.40805796166298175,1756822332.210085
2.2420747762,0.1483550012,10.3992070196,0.9859365293581818,-0.8649851947416822,-0.43249260609748735,1756822332.218110
2.5387847785999997,0.7824529901999999,10.896914120399998,0.9822712855691161,-0.9700540331650334,-0.417831840380735,1756822332.226109
2.8307091358,1.3184452526,11.121839444799999,0.8833111518876227,-1.0910052805150705,-0.3518583772020568,1756822332.234083
3.1680971224,1.8065810629999999,10.973484443599999,0.7513642255302664,-1.1594222220998331,-0.2907718533822553,1756822332.242125
3.4504501891999997,1.8065810629999999,10.540383553,0.6365215956556246,-1.216843571943739,-0.1514945790731078,1756822332.250085
3.8261233374,1.8520446923999998,9.997212822799998,0.5668829410477582,-1.2082914935155518,-0.07086036763096977,1756822332.258117
4.2687955184,1.67497582,9.595218626,0.5827654197876142,-1.2119566674914477,0.06230825429619756,1756822332.266119
4.721038989799999,1.4979069475999998,9.5521478192,0.6194173864393725,-1.1679743005280203,0.1759291886010284,1756822332.274112
5.0703910894,1.4404792051999997,9.858429112,0.6438519436074157,-1.0946705243041361,0.3249803241746367,1756822332.282086
5.391029317799999,1.4141581565999999,10.3633146806,0.7391469033130135,-0.9590584414241766,0.47647486834115943,1756822332.290118
5.575276658,1.4452648504,11.0213408956,0.7513642255302664,-0.7770205829878756,0.594982742004867,1756822332.298122
5.587240771,1.4045868661999998,11.483155657400001,0.7586946432952276,-0.5681046540708617,0.6585127267774605,1756822332.306075
5.460421173199999,1.4811571894,11.653046062,0.7428121471020792,-0.29565879274113194,0.6585127267774605,1756822332.314120
5.1828537516,1.7132609816,11.356336059599998,0.77335540901198,-0.030543261909900768,0.6206390994624761,1756822332.322088
4.7353959254,2.0602202586,10.5571333112,0.813672479826464,0.1710422666954443,0.653625822325169,1756822332.330086
4.354937132,2.2899312282,9.8010013696,0.8747590036462655,0.3152064454568834,0.6377433261320204,1756822332.338082
4.048655839199999,2.4358934068,9.2985086236,0.9187413007965226,0.3885102914939378,0.6927211626632569,1756822332.346126
3.8620156764,2.5531417142,9.2434737038,0.9028588220566666,0.38973202197033374,0.6927211626632569,1756822332.354086
3.6705898684,2.7349962317999994,9.308079914,0.8796459779117272,0.34697143784318024,0.7489207820307667,1756822332.362115
3.5892338999999995,2.8091737323999997,9.028119669799999,0.935845527466067,0.2981022362406315,0.7880161921820248,1756822332.370119
3.457628657,2.931207685,8.482556117,0.9419542147546323,0.20280725908174108,0.8356636633081775,1756822332.378085
3.4217363179999998,3.0293134116,8.2241312762,0.9969320512858685,0.029321531433504737,0.8723155601467658,1756822332.386112
3.3834511563999996,3.086741154,8.4251283746,0.9798278246163241,-0.1551597705022959,0.8991936306274786,1756822332.394084
3.5676984966,3.1824540579999994,8.685946037999999,0.9957103208094725,-0.32009338481576005,0.8930849433389134,1756822332.402569
3.7040893847999996,3.2135607518,8.5591264402,0.8991936306274786,-0.4789183642005365,0.9578367109477806,1756822332.410087
3.9026936606,3.4193434953999997,7.987241838799999,0.7623598172711231,-0.6389650566084165,1.0152579909785164,1756822332.418096
4.048655839199999,3.7447673689999994,7.3531438497999995,0.5632177496185702,-0.8283332455432163,0.9822712855691161,1756822332.426088
4.1156548719999995,3.2997023654,7.006184572799999,0.30421088862261164,-0.9700540331650334,0.9896017033340774,1756822332.434072
4.618147618,4.077369710399999,6.0825550492,0.0916297857297023,-1.1056660462318226,0.8356636633081775,1756822332.442114
5.635097223,3.9553357578,6.1758751306,0.13805554383275148,-1.255938912281827,0.9627236154000721,1756822332.450096
6.2117674696,3.912264951,6.8075802969999994,0.05253441048502932,-1.3341297151310507,1.0152579909785164,1756822332.458080
6.8075802969999994,3.6873396266,7.563712238599999,-0.039095375244672985,-1.314581992602129,0.9798278246163241,1756822332.466100
7.1282185253999995,3.493520996,8.0422767586,-0.19058995431778078,-1.1826351360579428,0.9627236154000721,1756822332.474082
7.2813591718,3.2159535744,8.315058534999999,-0.3726277953007894,-0.9236282052488142,0.8796459779117272,1756822332.482096
7.334001268999999,2.8259234905999997,8.4969130526,-0.4471533718142397,-0.5473352708787143,0.7562511997957281,1756822332.490072
7.2311098972,2.3473589705999998,8.7529450708,-0.5607743061190706,-0.14905111812031574,0.700051580428218,1756822332.498133
6.975077879,1.8592231602,8.7673020064,-0.5668829410477582,0.2590068609959585,0.5351179486614615,1756822332.506102
6.6209401342,1.2394821068,8.520841278599999,-0.5302310093025848,0.634078152156125,0.4386012235728825,1756822332.514087
6.221338759999999,0.334995164,8.5495551498,-0.4447098934081552,0.9700540331650334,0.318871654339364,1756822332.522069
6.0011990808,0.0669990328,8.6333039408,-0.2797762965479835,1.1887437709866304,0.20525072003453315,1756822332.530065
5.766702466,-0.3565305674,9.0113699116,-0.14538592669112765,1.464854841198841,0.17226399717184032,1756822332.538080
5.5489556094,-0.2823530668,9.4492564474,-0.03298672286269283,1.6823228485440418,0.15271630954950383,1756822332.546077
5.3455656884,-0.1339980656,10.0570333878,0.03298672286269283,1.824043636165859,0.24190263432641407,1756822332.554080
5.072783911999999,0.0981057266,10.6791672638,0.06597344572538566,1.9511035882577537,0.2700024352835228,1756822332.562106
4.721038989799999,0.1531406464,11.279765736399998,0.05375614096142535,1.971873041263071,0.37995817815916555,1756822332.570071
4.1156548719999995,-0.3278166962,11.755937433799998,-0.04276056667386108,1.9425515098295665,0.41905355340383854,1756822332.578068
3.6083764807999996,-1.2658031554,11.9258278384,-0.12217304763960307,1.9071212212943265,0.47647486834115943,1756822332.586099
3.1537401868,-2.0267207421999998,11.7463661434,-0.16126842288427606,1.8325957145940461,0.5497787143782138,1756822332.594086
2.8857440556,-2.4023938904,11.399406866399998,-0.1514945790731078,1.6701055961399591,0.5791002458117185,1756822332.602089
2.644068973,-2.3784656643999997,10.9016997656,-0.06475171524898962,1.4318681357894405,0.6914994321868608,1756822332.610100
2.5316063108,-1.8903298539999998,10.413563955199999,-0.03665191429188092,1.2034044668902126,0.7061601979036133,1756822332.618079
2.4741785684,-1.4285150921999998,10.2029955664,0.040317105721069016,0.9749409376173249,0.8197811671150291,1756822332.626118
2.6225335696,-1.0121639597999998,10.200602743800001,0.09529497715889039,0.7941248096574199,0.7806857744170635,1756822332.634121
2.7349962317999994,-0.681954441,10.3322079868,0.18081611050661253,0.653625822325169,0.8503244290249299,1756822332.642081
2.8211378453999996,-0.29910282499999996,10.540383553,0.2736676267127109,0.6206390994624761,0.8173377236155296,1756822332.650130
2.7972096194,0.11964113,10.6193466988,0.33597588100890846,0.6194173864393725,0.8759807341226615,1756822332.658113
2.5579273594,0.7609175867999999,10.506884036599999,0.32986722862692824,0.6829473537586737,0.8759807341226615,1756822332.666117
2.3593230835999996,1.256231865,10.198209921199998,0.26633724385433466,0.8246680715673207,0.8625416814290127,1756822332.674120
2.1846470337999997,1.5002997702,9.7914300792,0.20769418098732523,0.9590584414241766,0.8405505677604691,1756822332.682094
2.1487546948,1.3495519463999999,9.3966143502,0.19181168479417682,1.1276572471668287,0.8173377236155296,1756822332.690151
2.0051853387999996,1.2514462198,9.068797653999999,0.22113321622768156,1.2583823557813265,0.7977899836333155,1756822332.698449
1.8496518698,1.1916256548,8.836693861799999,0.28099800957108706,1.3695598814932428,0.813672479826464,1756822332.706104
1.6175480776,1.1150553316,8.583054666199999,0.3335324375094089,1.4611896672229452,0.8258898020437168,1756822332.714101
1.2921242039999998,1.0432706536,8.3007015994,0.3885102914939378,1.5247196519955388,0.8356636633081775,1756822332.722131
0.9092725879999999,0.9236295236,8.2097743406,0.5167920089688135,1.596801697743027,0.9016370915802706,1756822332.730144
0.5024927459999999,0.9284151688,8.391628858199999,0.55710909723659,1.7018705885262557,0.9700540331650334,1756822332.738098
-0.0669990328,1.0743773474,8.7888374098,0.613308681697515,1.7568484948706622,1.0030407385744338,1756822332.746108
-0.7154539573999998,1.3902299305999999,9.245866526399999,0.6230825604152682,1.8008307222077493,1.0910052805150705,1756822332.754086
-1.4883356571999997,1.7395820301999998,9.571290399999999,0.5632177496185702,1.842369523498629,1.1252137862140368,1756822332.762096
-2.2468604213999996,1.9836499354,9.367900479,0.5302310093025848,1.8692475939793418,1.126435516690433,1756822332.770109
-2.9527430883999997,1.9669001771999999,8.7912302324,0.4508185457901353,1.8264870971186509,1.0714576103460265,1756822332.778081
