acc_x,acc_y,acc_z,gyro_x,gyro_y,gyro_z,timestamp
-0.244244,-0.024644,0.99186,0.14,-9.52,-4.2,1770370097.985768
-0.238632,-0.030012,0.993324,-1.89,-9.24,-1.82,1770370097.993876
-0.233752,-0.03172,1.001132,-1.68,-8.05,-4.41,1770370098.001849
-0.230336,-0.029036,0.996496,1.54,-7.49,-3.71,1770370098.009955
-0.227408,-0.027328,1.005036,-0.56,-6.58,-5.11,1770370098.017866
-0.224968,-0.0244,1.005768,0.42,-6.58,-1.96,1770370098.025871
-0.223748,-0.019764,1.00528,0.21,-6.16,-6.65,1770370098.033831
-0.212524,-0.020252,1.002596,-0.91,-3.36,-5.88,1770370098.041857
-0.21106,-0.018788,1.00284,1.4,-3.5,-5.32,1770370098.049907
-0.203008,-0.019032,1.001864,-2.1,-3.29,-4.76,1770370098.058029
-0.20008,-0.021472,1.001864,0.56,-2.17,-3.71,1770370098.066026
-0.201056,-0.023424,0.999424,-0.98,0.07,-3.99,1770370098.073956
-0.20374,-0.026596,1.004304,-0.56,1.05,-1.47,1770370098.08187
-0.210328,-0.026596,1.00528,2.31,3.5,-3.64,1770370098.089855
-0.215696,-0.02318,1.004304,-1.19,3.92,-4.2,1770370098.097868
-0.226432,-0.023668,1.007476,0.63,5.39,-3.15,1770370098.105847
-0.234728,-0.022936,1.007232,0.21,6.37,-4.41,1770370098.113865
-0.2501,-0.023668,1.00528,-1.54,6.86,-2.45,1770370098.121846
-0.257664,-0.027816,0.998692,0.21,7.63,-5.32,1770370098.129843
-0.272792,-0.027328,0.994788,-1.12,8.26,-2.59,1770370098.137863
-0.28426,-0.029768,0.993324,0.42,6.37,-4.41,1770370098.145862
-0.293532,-0.028304,0.991128,-0.21,6.3,-5.32,1770370098.153846
-0.30012,-0.027572,0.993812,-0.21,5.04,-3.92,1770370098.161932
-0.305,-0.02318,0.985516,1.33,1.4,-4.97,1770370098.169987
-0.302072,-0.024644,0.978684,-0.49,-0.63,-2.94,1770370098.177843
-0.296948,-0.028304,0.977952,2.1,-2.03,-4.97,1770370098.185836
-0.288164,-0.0305,0.982344,1.19,-3.36,-7.77,1770370098.193839
-0.277428,-0.029768,0.98942,1.75,-3.92,-3.85,1770370098.201884
-0.2684,-0.030012,0.998204,5.46,-4.76,-8.47,1770370098.209863
-0.26474,-0.030012,1.003572,3.29,-3.92,-6.79,1770370098.21785
-0.263276,-0.02684,1.0065,4.97,-3.71,-6.3,1770370098.225842
-0.260348,-0.025132,1.007476,5.11,-3.5,-6.79,1770370098.23386
-0.26352,-0.02684,1.009916,3.08,-3.36,-4.62,1770370098.241846
-0.263276,-0.028304,1.010404,4.76,-4.48,-6.02,1770370098.249883
-0.25986,-0.032452,1.003084,2.52,-5.6,-4.2,1770370098.257996
-0.26108,-0.03294,1.002108,3.22,-5.95,-7.91,1770370098.265835
-0.257176,-0.039528,0.999424,2.1,-5.6,-5.18,1770370098.273827
-0.2501,-0.039772,0.996252,-0.91,-6.58,-5.18,1770370098.281846
-0.247172,-0.042456,0.995764,2.66,-7.35,-7.7,1770370098.289834
-0.2379,-0.039528,0.997716,0.14,-6.16,-5.88,1770370098.297853
-0.2318,-0.040748,0.9943,2.8,-6.16,-7.56,1770370098.305892
-0.2257,-0.035624,0.992348,0.7,-4.69,-7.77,1770370098.314072
-0.222772,-0.035136,0.995276,3.43,-3.92,-7.28,1770370098.321852
-0.2257,-0.025864,0.995032,3.43,-1.26,-9.1,1770370098.329835
-0.22448,-0.019032,0.995764,1.82,-1.96,-6.23,1770370098.337862
-0.229604,-0.015372,0.995032,2.52,-0.28,-7.14,1770370098.34594
-0.231556,-0.014396,0.99918,1.26,0.7,-6.79,1770370098.353895
-0.235948,-0.015616,1.0004,1.68,1.96,-6.3,1770370098.361845
-0.239608,-0.013664,1.002596,1.75,2.03,-4.83,1770370098.369823
-0.241804,-0.014152,1.003572,2.31,2.03,-8.54,1770370098.37783
-0.24644,-0.012444,1.006012,1.19,1.96,-6.79,1770370098.385842
-0.251808,-0.010736,1.006012,1.26,2.1,-9.24,1770370098.393874
-0.256444,-0.009272,1.007232,1.26,2.94,-6.65,1770370098.401848
-0.258152,-0.008052,1.01016,1.75,2.31,-4.48,1770370098.409848
-0.261568,-0.010004,1.016016,0.0,2.1,-7.21,1770370098.417873
-0.258396,-0.014396,1.013332,1.75,1.54,-2.8,1770370098.425847
-0.261812,-0.01952,1.017236,0.98,1.26,-6.09,1770370098.433854
-0.25742,-0.022692,1.011624,0.49,0.14,-4.62,1770370098.441848
-0.25498,-0.025132,1.012844,3.85,-1.26,-5.88,1770370098.449853
-0.250588,-0.021716,1.013332,1.96,-0.7,-3.29,1770370098.457853
-0.249612,-0.021472,1.016504,3.08,-1.82,-2.59,1770370098.465855
-0.249612,-0.018056,1.013576,1.26,-0.91,-0.35,1770370098.473971
-0.251076,-0.025132,1.017724,-1.68,1.26,0.0,1770370098.481844
-0.255224,-0.024156,1.012844,1.96,1.19,-1.96,1770370098.489856
-0.263276,-0.028548,1.005036,-0.77,3.5,2.31,1770370098.497881
-0.272304,-0.024644,0.988444,-1.75,2.73,0.28,1770370098.505847
-0.281088,-0.02074,0.97112,-2.87,3.36,3.92,1770370098.51385
-0.28426,-0.020496,0.971852,-3.92,3.36,0.77,1770370098.521876
-0.285968,-0.016592,0.973804,-0.91,2.38,0.42,1770370098.529868
-0.284992,-0.013908,0.980148,-5.32,1.05,2.31,1770370098.537842
-0.278404,-0.0183,0.980636,-1.12,-1.33,3.29,1770370098.545898
-0.274012,-0.02562,0.981124,-3.01,-2.03,3.78,1770370098.553884
-0.265472,-0.025376,0.981612,-3.78,-2.59,0.91,1770370098.561841
-0.25742,-0.027084,0.984296,0.42,-3.57,4.2,1770370098.569829
-0.248148,-0.029036,0.99186,-1.47,-4.76,3.78,1770370098.577839
-0.239364,-0.029768,0.99918,-1.19,-2.52,2.24,1770370098.585856
-0.238388,-0.028304,1.008208,-1.68,-1.19,3.57,1770370098.593845
-0.237412,-0.021228,1.010404,-2.03,1.33,0.63,1770370098.601847
-0.239364,-0.013664,1.01138,-0.98,2.03,2.03,1770370098.609845
-0.239608,-0.012688,1.006256,-3.15,3.15,2.8,1770370098.617879
-0.245708,-0.010736,1.004548,-2.66,4.69,3.85,1770370098.625832
-0.251808,-0.01342,1.00528,-5.88,5.95,-0.14,1770370098.633837
-0.256688,-0.018544,1.002596,-4.55,4.13,3.22,1770370098.641852
-0.260104,-0.023424,1.0004,-1.89,4.27,2.31,1770370098.649888
-0.261812,-0.029036,0.996496,-5.6,2.8,-0.56,1770370098.657873
-0.26108,-0.029036,0.999668,-2.52,2.59,3.22,1770370098.665879
-0.257908,-0.035868,0.997472,-3.78,1.96,0.28,1770370098.673834
-0.258152,-0.034892,0.998692,-2.45,2.73,0.77,1770370098.681865
-0.256932,-0.036844,0.996984,-1.75,2.31,0.21,1770370098.689894
-0.253028,-0.0366,0.998936,-3.78,2.94,-0.49,1770370098.697855
-0.256444,-0.035868,0.993568,-0.49,3.71,0.07,1770370098.705848
-0.260104,-0.036844,0.992104,-3.57,5.18,-2.59,1770370098.713939
-0.259616,-0.042456,0.989664,-4.48,4.76,-1.12,1770370098.721868
-0.260348,-0.0427,0.987956,-1.89,3.57,-4.76,1770370098.729882
-0.262544,-0.044896,0.984296,-3.22,4.62,-3.5,1770370098.737861
-0.26596,-0.047336,0.986492,-0.21,4.41,-1.96,1770370098.745867
-0.27084,-0.04514,0.993568,-0.21,3.64,-4.2,1770370098.753855
-0.272792,-0.037576,0.996496,-0.77,3.92,-4.27,1770370098.761918
-0.273768,-0.03538,1.002596,3.22,3.85,-5.18,1770370098.769873
-0.281576,-0.030988,1.009184,-0.14,2.8,-4.27,1770370098.777919
-0.280356,-0.025132,1.011868,1.47,3.22,-4.2,1770370098.785836
-0.284992,-0.021716,1.008452,0.7,2.73,-4.62,1770370098.793847
-0.284992,-0.019276,0.997716,-0.56,3.29,-2.45,1770370098.801886
-0.28792,-0.020008,0.985516,3.08,2.87,-4.97,1770370098.809872
-0.285724,-0.020496,0.973804,0.63,3.99,-3.08,1770370098.817873
-0.280356,-0.022204,0.971608,4.76,2.31,-4.2,1770370098.825999
-0.27328,-0.018544,0.97844,1.75,1.61,-3.5,1770370098.83383
-0.27084,-0.01464,0.990396,1.82,1.89,-1.61,1770370098.841851
-0.272792,-0.006832,1.005036,5.81,2.31,-3.85,1770370098.849855
-0.274256,-0.000488,1.019676,1.47,2.52,-1.05,1770370098.857883
-0.276208,0.002684,1.024068,2.87,1.26,-1.05,1770370098.865849
-0.28304,0.004148,1.025288,2.45,2.24,-2.73,1770370098.873832
-0.283772,0.007076,1.025044,-0.63,3.29,-2.73,1770370098.881849
-0.284504,0.003172,1.019676,1.89,3.5,-2.17,1770370098.889862
-0.284992,-0.000976,1.012844,-1.33,2.73,-3.15,1770370098.897922
-0.28548,-0.011468,1.001376,-0.42,-0.14,-6.65,1770370098.90588
-0.281088,-0.020984,0.98576,-3.43,-1.75,-3.5,1770370098.91388
-0.28182,-0.0244,0.97234,-2.87,-3.5,-6.51,1770370098.921889
-0.28304,-0.029768,0.959164,-1.12,-5.04,-6.23,1770370098.929879
-0.287188,-0.033184,0.957212,-2.31,-5.95,-5.88,1770370098.937837
-0.276452,-0.029768,0.963312,-1.26,-5.95,-8.33,1770370098.945846
-0.26718,-0.025376,0.975756,-1.19,-5.25,-8.33,1770370098.953938
-0.261812,-0.01708,0.993812,0.21,-3.5,-10.01,1770370098.961873
-0.25498,-0.005368,1.012112,2.66,-1.19,-11.48,1770370098.969843
-0.249612,0.002928,1.016504,-0.21,0.07,-11.27,1770370098.977843
-0.241316,0.005124,1.011624,1.47,0.14,-13.86,1770370098.985843
-0.239608,0.005612,1.008452,1.75,-0.49,-12.6,1770370098.993893
-0.24156,0.010004,1.00772,1.68,-0.77,-13.51,1770370099.001843
-0.243756,0.011468,1.00406,4.55,-2.8,-10.15,1770370099.009846
-0.242292,0.01952,1.006012,3.01,-1.82,-11.48,1770370099.017873
-0.240584,0.020252,1.004304,3.43,-1.54,-8.47,1770370099.0259
-0.238144,0.015128,1.00894,1.19,-1.26,-7.42,1770370099.033831
-0.239364,0.006588,1.008452,1.4,0.28,-7.21,1770370099.041847
-0.243268,-0.001952,1.009672,3.78,1.47,-5.11,1770370099.049851
-0.247904,-0.006832,1.002108,2.45,3.43,-4.62,1770370099.057985
-0.256688,-0.012688,0.989908,3.29,2.45,-0.84,1770370099.066105
-0.263764,-0.020008,0.975024,0.91,4.06,-4.34,1770370099.074204
-0.270352,-0.020008,0.970632,0.07,4.83,-3.85,1770370099.081858
-0.279136,-0.014152,0.969168,3.64,6.16,-3.5,1770370099.089856
-0.280844,-0.012932,0.9699,-0.7,7.35,-3.5,1770370099.097914
-0.28914,-0.010004,0.971608,1.33,6.16,-3.85,1770370099.105871
-0.289628,-0.013908,0.975024,0.56,5.95,-4.83,1770370099.113848
-0.292068,-0.016348,0.975024,-1.26,3.78,-4.27,1770370099.121941
-0.292556,-0.025864,0.975512,1.89,2.94,-3.99,1770370099.129856
-0.291336,-0.031232,0.97356,0.56,0.14,-4.76,1770370099.13794
-0.2867,-0.036844,0.974048,2.8,-2.1,-3.99,1770370099.145937
-0.280844,-0.034892,0.985028,1.47,-1.19,-4.76,1770370099.153852
-0.278892,-0.03172,0.990396,2.24,-0.77,-3.64,1770370099.161842
-0.279136,-0.02318,0.990396,4.13,0.35,-6.65,1770370099.169969
-0.280844,-0.015616,0.991616,2.8,-0.07,-4.83,1770370099.177845
-0.285724,-0.006588,0.989176,4.97,0.14,-5.74,1770370099.185828
-0.291092,0.000244,0.986492,4.55,0.49,-4.62,1770370099.193844
-0.29524,0.003416,0.997716,3.08,0.07,-3.08,1770370099.201837
-0.302072,0.003172,0.996984,5.25,0.14,-7.7,1770370099.209872
-0.298656,0.004148,0.997228,2.24,-1.26,-4.2,1770370099.217937
-0.298656,-0.000244,0.99552,6.65,-4.2,-9.45,1770370099.225854
-0.29036,0.004148,0.997472,3.71,-4.76,-6.65,1770370099.233837
-0.288408,0.011712,1.002596,3.92,-6.37,-9.8,1770370099.241854
-0.281576,0.014884,1.002352,5.18,-5.95,-9.59,1770370099.249842
-0.275232,0.015372,0.999424,3.85,-5.25,-8.54,1770370099.257856
-0.270596,0.017568,0.995276,4.13,-6.37,-8.89,1770370099.265921
-0.264252,0.015616,0.996496,2.1,-4.76,-7.91,1770370099.273869
-0.261324,0.016104,1.001132,2.66,-4.27,-8.47,1770370099.281837
-0.260592,0.013176,1.005036,4.97,-3.57,-8.47,1770370099.289855
-0.25986,0.005368,1.010892,1.47,-4.06,-8.12,1770370099.297896
-0.264008,0.00244,1.017236,3.57,-2.52,-7.14,1770370099.305849
-0.270108,0.00122,1.02724,2.24,-1.82,-7.14,1770370099.313838
-0.278404,0.003172,1.027972,0.7,-0.77,-8.33,1770370099.321857
-0.282064,0.000244,1.02724,3.01,-1.19,-7.21,1770370099.329866
-0.273036,-0.003904,1.029436,-0.91,-1.26,-6.58,1770370099.337835
-0.26474,-0.006588,1.02602,0.0,-0.28,-9.45,1770370099.345875
-0.252784,-0.00732,1.025532,0.07,-0.49,-5.18,1770370099.353846
-0.248392,-0.00488,1.026264,-0.63,-0.21,-7.14,1770370099.361856
-0.243756,-0.00244,1.026508,-1.12,1.4,-4.62,1770370099.369829
-0.25254,0.00122,1.02968,1.47,2.24,-4.06,1770370099.377872
-0.25742,0.002928,1.01626,-1.33,5.25,-5.81,1770370099.385848
-0.27084,0.00488,1.004548,-0.91,5.74,-7.35,1770370099.393925
-0.28426,0.01464,0.992592,-1.19,6.02,-8.19,1770370099.401842
-0.301828,0.019032,0.98576,2.66,7.07,-7.91,1770370099.409842
-0.320372,0.025864,0.97356,0.35,7.49,-9.94,1770370099.417931
-0.332328,0.037576,0.952088,1.12,6.86,-9.59,1770370099.42585
-0.341844,0.053436,0.933788,0.0,5.46,-11.13,1770370099.433835
-0.347212,0.06222,0.926712,-1.75,3.57,-12.39,1770370099.441897
-0.346724,0.067832,0.932324,-3.22,0.63,-15.19,1770370099.449881
-0.355752,0.0671,0.933056,-6.37,-2.31,-7.77,1770370099.45786
-0.364292,0.059048,0.921344,-8.68,-5.18,-7.7,1770370099.465845
-0.378688,0.047336,0.902556,-9.66,-7.28,-3.64,1770370099.473831
-0.391376,0.03172,0.889868,-12.18,-6.37,0.77,1770370099.481848
-0.411872,0.011712,0.893772,-8.54,-5.6,0.84,1770370099.489934
-0.426756,-0.007564,0.909876,-7.77,-5.6,3.92,1770370099.49785
-0.450424,-0.017812,0.929152,-2.66,-4.62,4.97,1770370099.505846
-0.469456,-0.020984,0.952088,-1.12,-5.6,4.13,1770370099.513853
-0.488,-0.01708,0.964776,-1.75,-8.82,3.57,1770370099.521914
-0.495564,-0.012688,0.982588,2.1,-14.28,2.45,1770370099.529847
-0.497516,-0.003416,0.999424,-1.12,-20.51,3.36,1770370099.537839
-0.49044,0.008784,1.009916,0.98,-31.219999,1.4,1770370099.545915
-0.469944,0.013908,1.027484,-1.19,-40.459999,3.15,1770370099.553863
-0.439444,0.017568,1.037488,-1.89,-47.599998,0.0,1770370099.561855
-0.398208,0.024156,1.039928,-1.12,-55.23,-1.33,1770370099.569847
-0.353312,0.024156,1.040416,-0.21,-59.080002,-1.61,1770370099.577854
-0.31232,0.024156,1.038952,1.96,-61.529999,-3.15,1770370099.585921
-0.265716,0.021716,1.040904,-0.21,-60.48,-3.29,1770370099.593833
-0.234484,0.01708,1.044808,0.63,-57.470001,-7.0,1770370099.601847
-0.200812,0.01464,1.052616,3.08,-54.32,-7.07,1770370099.609847
-0.180316,0.010248,1.06506,-0.7,-49.279999,-8.89,1770370099.617878
-0.17202,0.004148,1.0675,1.68,-43.540001,-9.59,1770370099.62584
-0.16836,-0.00732,1.047492,-0.98,-38.43,-9.87,1770370099.633834
-0.169092,-0.024888,1.009916,-2.24,-32.900002,-9.31,1770370099.641851
-0.16958,-0.05124,0.958676,1.26,-32.549999,-4.48,1770370099.649846
-0.174948,-0.07808,0.903532,-0.42,-33.25,-2.38,1770370099.657877
-0.17202,-0.099552,0.866932,5.67,-33.950001,1.47,1770370099.66595
-0.162016,-0.099796,0.877424,6.44,-35.560001,3.78,1770370099.673861
-0.145668,-0.095648,0.918172,8.33,-34.580002,7.07,1770370099.681849
-0.123464,-0.096868,0.962336,9.03,-33.740002,4.83,1770370099.689864
-0.108336,-0.08906,1.021872,6.65,-30.17,7.49,1770370099.697849
-0.095648,-0.078324,1.075552,7.21,-27.16,9.1,1770370099.705972
-0.086132,-0.065636,1.104344,3.22,-24.57,7.63,1770370099.713868
-0.078324,-0.072956,1.095804,3.43,-23.66,8.19,1770370099.721971
-0.066612,-0.08418,1.077504,5.67,-25.34,6.51,1770370099.72987
-0.05368,-0.093208,1.0675,5.88,-26.6,8.61,1770370099.737831
-0.03782,-0.099552,1.0675,8.82,-28.49,10.64,1770370099.745847
-0.027328,-0.10248,1.069208,8.89,-28.77,8.96,1770370099.753851
-0.012932,-0.104432,1.070672,7.07,-28.91,11.41,1770370099.762002
-0.009516,-0.100284,1.06506,10.36,-26.110001,10.29,1770370099.769847
-0.009028,-0.091988,1.050664,9.52,-23.59,12.32,1770370099.77785
-0.015128,-0.08296,1.033584,9.66,-21.49,12.46,1770370099.785846
-0.017568,-0.066124,1.022604,9.45,-19.74,11.34,1770370099.793853
-0.028304,-0.044408,1.0187,8.96,-15.68,16.450001,1770370099.801898
-0.036112,-0.026596,1.023824,10.15,-14.35,10.99,1770370099.809846
-0.044408,-0.012932,1.03578,5.74,-11.48,14.56,1770370099.817845
-0.052704,-0.003416,1.038952,5.88,-11.62,13.79,1770370099.825861
-0.0549,0.002196,1.03456,5.74,-11.69,15.89,1770370099.833859
-0.05734,0.010248,1.024556,1.75,-14.7,16.799999,1770370099.841851
-0.050996,0.010248,1.017236,6.02,-18.620001,18.83,1770370099.849845
-0.043432,0.013664,1.008696,1.75,-22.610001,21.77,1770370099.857892
-0.024888,0.023424,0.993324,2.66,-27.790001,24.01,1770370099.865925
-0.005368,0.03172,0.97844,-1.33,-32.48,23.59,1770370099.873836
0.020008,0.04148,0.964044,-4.76,-36.119999,23.799999,1770370099.881853
0.050996,0.059048,0.951112,-5.25,-37.099998,26.809999,1770370099.889849
0.084424,0.074176,0.937448,-8.19,-39.130001,31.01,1770370099.897894
0.1159,0.08418,0.910364,-11.13,-38.43,32.34,1770370099.905911
0.139324,0.091012,0.891576,-14.98,-36.049999,34.509998,1770370099.913842
0.163236,0.083936,0.873764,-14.56,-33.25,34.369999,1770370099.92187
0.20496,0.067832,0.876936,-13.65,-28.629999,35.139999,1770370099.929874
0.2562,0.056852,0.901824,-12.81,-24.92,35.209999,1770370099.937901
0.302316,0.063684,0.9394,-10.57,-21.84,34.09,1770370099.945849
0.335256,0.079056,1.006744,-9.1,-18.27,32.900002,1770370099.953847
0.367952,0.10248,1.080676,-11.69,-10.99,31.639999,1770370099.961855
0.390888,0.112972,1.148264,-11.9,0.35,33.110001,1770370099.969885
0.392596,0.099796,1.184864,-14.56,13.93,32.060001,1770370099.977846
0.36356,0.06954,1.179252,-11.55,29.68,33.880001,1770370099.985845
0.302072,0.016836,1.137284,-11.69,47.459999,35.349998,1770370099.993844
0.234484,-0.033428,1.096292,-8.68,64.470001,36.470001,1770370100.001953
0.16226,-0.060024,1.081896,-3.92,80.989998,32.970001,1770370100.009842
0.083692,-0.063928,1.09068,-1.89,95.830002,33.18,1770370100.01785
0.007564,-0.045872,1.113372,-0.63,105.980003,34.16,1770370100.025861
-0.076128,-0.026108,1.144604,-0.91,108.290001,33.740002,1770370100.033925
-0.15616,-0.019032,1.166076,-2.38,106.82,33.040001,1770370100.041854
-0.227652,-0.017568,1.166808,-1.19,100.309998,32.130001,1770370100.049845
-0.292068,-0.019032,1.160464,-3.43,88.970001,31.08,1770370100.057981
-0.342088,-0.01952,1.132404,-3.57,72.800003,35.349998,1770370100.066157
-0.37698,-0.016836,1.1041,-5.11,53.549999,31.85,1770370100.074014
-0.390156,-0.014884,1.078236,-4.97,36.119999,32.41,1770370100.081936
-0.382104,-0.01586,1.059692,-5.74,16.940001,31.639999,1770370100.089852
-0.351604,-0.020984,1.042856,-7.98,1.54,31.85,1770370100.097951
-0.30622,-0.030744,1.038952,-7.77,-9.31,29.33,1770370100.105956
-0.252296,-0.039284,1.025288,-9.87,-16.030001,28.139999,1770370100.11388
-0.204228,-0.037088,1.011868,-9.52,-19.67,28.559999,1770370100.122053
-0.160064,-0.025132,0.985028,-9.24,-19.389999,24.709999,1770370100.129924
-0.122,-0.026596,0.962092,-13.09,-17.01,24.360001,1770370100.137836
-0.086376,-0.04636,0.955504,-15.26,-12.81,23.52,1770370100.145872
-0.049044,-0.07808,0.959164,-16.030001,-5.04,21.98,1770370100.153955
-0.027328,-0.116144,0.963068,-14.91,5.18,25.129999,1770370100.16184
-0.024644,-0.147376,0.965752,-6.93,16.309999,26.6,1770370100.169865
-0.043188,-0.164944,0.952332,-7.7,28.84,31.5,1770370100.177885
-0.079056,-0.17568,0.923784,-2.03,39.34,33.25,1770370100.185841
-0.125172,-0.1891,0.896212,-0.35,46.48,37.169998,1770370100.193848
-0.1708,-0.198372,0.88206,0.42,53.130001,41.09,1770370100.201821
-0.223016,-0.194956,0.906948,6.65,56.98,38.990002,1770370100.209843
-0.274988,-0.179584,0.937204,5.32,61.110001,44.52,1770370100.217848
-0.335744,-0.163236,0.970876,8.54,60.41,42.630001,1770370100.225941
-0.393328,-0.149816,0.986004,4.55,59.57,40.32,1770370100.233832
-0.443836,-0.132736,0.98088,5.88,56.560001,37.59,1770370100.241846
-0.487756,-0.121268,0.96868,7.0,50.470001,32.900002,1770370100.249839
-0.517036,-0.106872,0.9455,2.31,44.240002,29.120001,1770370100.257843
-0.538508,-0.096868,0.922808,2.31,34.790001,26.459999,1770370100.26597
-0.549,-0.091256,0.915732,-0.91,26.040001,22.190001,1770370100.273842
-0.551928,-0.087596,0.92354,-2.24,15.96,19.32,1770370100.281839
-0.543632,-0.079544,0.9455,-0.91,4.83,15.47,1770370100.289841
-0.524112,-0.070272,0.96258,-2.24,-3.64,10.29,1770370100.297837
-0.499224,-0.05856,0.967216,-0.42,-11.69,8.82,1770370100.30584
-0.466772,-0.040992,0.961848,0.21,-19.879999,2.1,1770370100.313917
-0.4331,-0.032696,0.957456,2.66,-26.040001,2.8,1770370100.321859
-0.402844,-0.020984,0.95892,5.25,-30.030001,-5.04,1770370100.329847
-0.372344,-0.004148,0.971608,3.92,-32.619999,-4.97,1770370100.337833
-0.354044,0.006588,0.998692,4.55,-31.57,-9.31,1770370100.34584
-0.3355,0.011712,1.009916,5.32,-30.52,-10.5,1770370100.353823
-0.317932,0.002196,0.994788,5.67,-27.51,-11.69,1770370100.362003
-0.303048,-0.018788,0.955992,6.23,-28.559999,-13.16,1770370100.369836
-0.280844,-0.046116,0.920124,11.55,-26.6,-11.9,1770370100.377832
-0.260348,-0.05124,0.914268,13.02,-26.809999,-12.04,1770370100.385834
-0.241804,-0.025376,0.952088,15.89,-24.290001,-11.13,1770370100.393942
-0.240096,-0.002196,0.997472,15.54,-22.469999,-10.92,1770370100.401877
-0.239852,0.014396,1.023092,16.17,-21.700001,-13.72,1770370100.409844
-0.243512,0.033672,1.04066,13.23,-18.129999,-11.13,1770370100.418497
-0.23668,0.04514,1.046028,11.2,-16.17,-13.65,1770370100.425971
-0.224724,0.0549,1.051152,4.55,-13.23,-11.13,1770370100.433835
-0.204472,0.05978,1.047492,-0.98,-13.44,-14.49,1770370100.441852
-0.180804,0.047336,1.043588,-1.54,-13.02,-14.21,1770370100.449845
-0.15494,0.033916,1.045296,-6.58,-12.81,-8.75,1770370100.457846
-0.13298,0.016592,1.048956,-4.97,-14.91,-8.54,1770370100.465929
-0.115168,0.010248,1.047492,-4.97,-15.26,-5.74,1770370100.473876
-0.099552,0.002684,1.040904,-6.02,-13.51,-5.88,1770370100.481847
-0.094428,0.0,1.034316,-2.1,-11.34,-3.15,1770370100.48996
-0.094672,0.007808,1.035048,0.21,-7.42,-3.85,1770370100.497848
-0.10858,0.023424,1.026996,0.14,-1.05,-3.5,1770370100.505845
-0.131272,0.034892,1.019676,-0.63,7.84,-7.0,1770370100.513847
-0.166652,0.039528,1.0065,-3.78,15.33,-5.11,1770370100.521921
-0.199592,0.035868,1.00162,-1.47,19.6,-11.62,1770370100.529854
-0.230824,0.026108,1.001376,-4.27,23.030001,-7.42,1770370100.537841
-0.259616,0.012444,1.007232,-3.71,24.15,-11.83,1770370100.545848
-0.282552,-0.007564,1.016992,-4.13,21.91,-12.39,1770370100.553834
-0.295728,-0.021716,1.027484,-2.45,16.59,-13.09,1770370100.561881
-0.306464,-0.0366,1.029924,1.33,9.73,-13.65,1770370100.569856
-0.310612,-0.043676,1.027728,0.7,3.92,-13.09,1770370100.577939
-0.307928,-0.049044,1.02114,4.55,-2.31,-14.35,1770370100.58584
-0.301096,-0.04514,1.013088,3.57,-6.3,-14.7,1770370100.593921
-0.285968,-0.033184,1.00528,0.91,-7.7,-18.129999,1770370100.601857
-0.268156,-0.025376,1.001132,3.08,-9.52,-16.870001,1770370100.60986
-0.253516,-0.019032,0.999424,-1.68,-10.64,-18.969999,1770370100.61783
-0.23424,-0.021472,0.995032,-2.03,-8.26,-20.02,1770370100.625855
-0.220576,-0.021716,0.99308,-2.8,-7.35,-18.48,1770370100.633842
-0.20618,-0.033428,1.00162,-6.44,-7.07,-18.620001,1770370100.641851
-0.196664,-0.041724,1.0126,-1.54,-6.3,-20.790001,1770370100.649846
-0.191296,-0.05002,1.013576,-1.68,-6.65,-19.879999,1770370100.657901
-0.18544,-0.049532,1.013332,1.68,-6.93,-17.639999,1770370100.665853
-0.173972,-0.042944,1.005036,0.35,-7.07,-18.34,1770370100.673865
-0.166896,-0.03416,0.998936,0.98,-8.05,-16.52,1770370100.68185
-0.158844,-0.022448,0.997472,5.18,-7.98,-17.99,1770370100.689844
-0.153476,-0.016592,1.00772,1.12,-6.02,-16.870001,1770370100.697864
-0.150548,-0.010248,1.024068,5.88,-4.27,-15.54,1770370100.705843
-0.151036,0.003904,1.024556,3.57,-1.4,-15.4,1770370100.713832
-0.155672,0.016104,1.021384,3.36,0.84,-14.98,1770370100.721881
-0.160308,0.021228,1.005768,3.99,1.19,-18.9,1770370100.729862
-0.162016,0.0183,1.000888,-1.19,2.73,-14.42,1770370100.737842
-0.166408,0.01708,1.002108,-0.7,4.62,-17.219999,1770370100.745852
-0.17202,0.011224,1.005524,-1.19,5.6,-13.51,1770370100.753871
-0.181048,0.007076,1.010404,-3.57,6.16,-15.75,1770370100.761993
-0.192516,0.001952,1.006988,2.38,7.14,-15.61,1770370100.76986
-0.204228,0.003416,1.002596,-2.87,6.86,-10.15,1770370100.777851
-0.211792,0.005368,0.9882,-0.42,5.74,-10.92,1770370100.785844
-0.217648,0.002928,0.986248,1.75,6.51,-9.59,1770370100.793888
-0.223504,0.00244,0.980392,-0.35,3.71,-12.81,1770370100.801865
-0.223504,0.003904,0.978684,3.22,2.31,-9.8,1770370100.809844
-0.216916,0.001708,0.977952,0.21,1.47,-12.6,1770370100.817842
-0.212768,-0.00244,0.986004,2.87,-0.84,-10.78,1770370100.825877
-0.21228,-0.011224,0.995764,0.77,-1.19,-12.11,1770370100.83385
-0.205936,-0.014396,1.008452,0.42,0.49,-10.5,1770370100.84185
-0.207644,-0.016592,1.008208,5.04,0.07,-8.89,1770370100.849848
-0.205936,-0.014152,1.00284,3.92,0.21,-5.18,1770370100.858271
-0.206912,-0.0122,0.99674,1.33,1.75,-7.98,1770370100.865846
-0.209352,-0.014396,0.993324,2.59,2.73,-7.49,1770370100.873835
-0.211548,-0.01342,1.001376,-0.42,2.52,-6.23,1770370100.88185
-0.205448,-0.018056,1.006988,3.57,2.38,-6.09,1770370100.889848
-0.206912,-0.020984,1.018212,0.0,1.61,-5.32,1770370100.897898
-0.207888,-0.014884,1.021384,1.75,1.68,-3.64,1770370100.905857
-0.210328,-0.009272,1.024312,2.03,1.4,-4.62,1770370100.913844
-0.214232,-0.003172,1.0187,-0.35,0.42,-4.41,1770370100.921867
-0.2135,-0.0061,1.0126,2.17,-0.49,-5.32,1770370100.929899
-0.211304,-0.011956,1.000156,-0.7,-1.26,-5.67,1770370100.937848
-0.20984,-0.017568,0.99064,0.14,-1.26,-3.5,1770370100.945855
-0.199104,-0.022692,0.984296,-1.54,-2.73,-7.0,1770370100.953875
-0.199836,-0.030256,0.986004,-1.96,-1.4,-2.94,1770370100.96184
-0.193736,-0.034892,0.9882,0.77,-1.05,-6.86,1770370100.969908
-0.191052,-0.033916,0.994544,0.14,1.26,-5.53,1770370100.977858
-0.191296,-0.037332,1.002352,1.47,3.15,-4.97,1770370100.985868
-0.19154,-0.037576,1.003084,-0.98,4.76,-5.32,1770370100.993858
-0.196908,-0.038308,1.007476,-0.91,7.0,-2.87,1770370101.001863
-0.20008,-0.042944,1.00894,2.8,6.86,-4.97,1770370101.009887
-0.208376,-0.043432,1.013088,-0.63,8.47,-2.8,1770370101.017845
-0.217648,-0.044164,1.014064,0.56,9.17,-3.99,1770370101.025871
-0.226432,-0.044896,1.019676,1.47,8.82,-2.94,1770370101.033858
-0.237168,-0.043432,1.029436,-0.91,9.17,-3.64,1770370101.041854
-0.24766,-0.036844,1.037,1.54,8.12,-2.73,1770370101.049849
-0.253028,-0.033184,1.029436,-0.21,7.14,-2.59,1770370101.058549
-0.25498,-0.033428,1.025044,3.08,5.81,-0.14,1770370101.066053
-0.257908,-0.033428,1.025288,-0.21,4.34,-1.96,1770370101.07397
-0.258152,-0.028548,1.021628,-1.12,2.03,-1.82,1770370101.081975
-0.25864,-0.026596,1.017236,2.1,0.7,-4.97,1770370101.089852
-0.253272,-0.017568,1.020164,-0.56,-1.19,-1.96,1770370101.097858
-0.252296,-0.017812,1.020408,1.19,-1.4,-2.87,1770370101.105842
-0.248148,-0.014152,1.016016,-1.47,-1.75,-3.43,1770370101.113902
-0.243756,-0.018056,1.011624,-1.05,-1.4,-2.94,1770370101.121848
-0.241316,-0.015616,1.014064,2.1,-1.82,-3.85,1770370101.129851
-0.238144,-0.022204,1.010648,-2.03,-3.64,-3.64,1770370101.137849
-0.235948,-0.026108,1.010404,0.35,-3.43,-1.33,1770370101.145968
-0.23302,-0.025864,1.008696,-0.35,-3.5,-3.5,1770370101.153847
-0.224724,-0.031232,1.003084,-0.91,-3.29,-4.62,1770370101.161851
-0.219844,-0.0305,0.99674,-0.07,-4.83,-2.24,1770370101.170355
-0.213256,-0.035136,0.991372,-0.56,-3.15,-4.27,1770370101.177857
-0.207644,-0.031232,0.992836,1.54,-4.41,0.07,1770370101.185848
-0.207644,-0.027328,0.989908,-1.47,-2.73,-1.12,1770370101.193843
-0.207644,-0.0244,0.990884,0.07,-1.61,-1.4,1770370101.201917
-0.205204,-0.022692,0.994788,0.35,-0.91,-1.47,1770370101.209847
-0.210572,-0.02074,1.00162,-0.98,1.96,-2.94,1770370101.217846
-0.212036,-0.022448,1.002352,-0.91,2.17,1.19,1770370101.225851
-0.216184,-0.025864,1.007964,-2.17,4.27,-3.85,1770370101.233863
-0.222284,-0.02928,1.007232,-1.12,3.15,-0.77,1770370101.241849
-0.227652,-0.02806,1.009184,0.42,4.27,1.26,1770370101.249838
-0.231556,-0.025864,1.012844,-1.68,4.13,-1.05,1770370101.257838
-0.2379,-0.024156,1.012844,0.91,4.06,0.56,1770370101.265839
-0.244732,-0.020984,1.010404,0.56,2.52,1.19,1770370101.273848
-0.244732,-0.020008,1.010404,-1.26,2.38,1.12,1770370101.28189
-0.247416,-0.016592,1.01138,1.26,1.54,-2.03,1770370101.289865
-0.24888,-0.01586,1.007476,-0.21,0.14,-0.56,1770370101.297842
-0.247904,-0.01464,1.003816,-0.21,-0.98,-0.07,1770370101.305836
-0.24522,-0.01952,1.003816,2.66,-0.84,-2.52,1770370101.313839
-0.242292,-0.024644,1.005524,-0.91,-1.33,0.98,1770370101.321873
-0.242048,-0.027328,1.00894,3.78,-2.31,-3.5,1770370101.329887
-0.241316,-0.027084,1.010648,-0.21,-2.38,2.87,1770370101.337832
-0.236192,-0.027572,1.009672,-0.21,-2.59,-1.96,1770370101.345836
-0.234728,-0.02684,1.004304,0.0,-2.17,0.0,1770370101.353838
-0.232532,-0.026352,1.005036,0.0,-2.59,-0.49,1770370101.361854
-0.22448,-0.025132,1.002108,-0.91,-2.94,-1.26,1770370101.369827
-0.22204,-0.027084,1.006256,0.63,-2.17,-1.89,1770370101.377879
-0.219844,-0.029768,1.00284,-0.56,-1.68,-1.47,1770370101.38584
-0.219356,-0.0305,1.006012,0.56,-0.63,-0.56,1770370101.393962
-0.2196,-0.029036,1.006988,-1.12,1.82,-2.03,1770370101.401846
-0.2257,-0.026596,1.003084,0.56,1.4,-1.05,1770370101.409846
-0.228384,-0.024156,1.002108,0.42,1.82,1.12,1770370101.417849
-0.227408,-0.023912,1.0004,1.12,1.82,0.42,1770370101.425892
-0.23546,-0.022204,0.999912,0.21,0.7,0.63,1770370101.43399
-0.236924,-0.021228,0.998936,-0.42,1.68,0.0,1770370101.441849
-0.236924,-0.020984,0.996008,1.33,-0.42,1.82,1770370101.449849
-0.235216,-0.02074,0.996252,1.12,0.49,-0.14,1770370101.457842
-0.237168,-0.0183,1.001376,2.45,-2.87,1.96,1770370101.465928
-0.235216,-0.017812,1.003572,1.33,-1.05,0.84,1770370101.473872
-0.23546,-0.019032,1.007476,-0.7,0.07,-0.7,1770370101.481856
-0.236924,-0.015128,1.006988,1.47,-0.84,3.15,1770370101.489847
-0.233508,-0.011468,1.008696,1.68,-0.91,0.28,1770370101.497874
-0.236192,-0.009516,1.006988,0.07,-1.82,1.33,1770370101.505918
-0.23424,-0.010736,1.005036,0.0,-2.38,-1.12,1770370101.513873
-0.231312,-0.012444,1.007476,-1.68,-0.84,-0.14,1770370101.521847
-0.227896,-0.017324,1.0065,2.24,-2.03,-1.05,1770370101.529872
-0.22448,-0.019276,1.009184,-1.47,-1.19,-1.61,1770370101.537962
-0.223016,-0.020984,1.01138,1.26,-1.61,1.89,1770370101.545875
-0.225212,-0.022936,1.009184,0.21,-0.98,-3.29,1770370101.553849
-0.224724,-0.023424,1.009672,-0.28,-0.49,-1.75,1770370101.561849
-0.223016,-0.025376,1.013332,0.77,-0.63,-3.71,1770370101.569844
-0.224236,-0.027816,1.013332,0.91,0.14,-0.56,1770370101.577953
-0.228872,-0.027572,1.012356,-0.77,0.35,-0.28,1770370101.585874
-0.22814,-0.027572,1.011624,-0.56,-0.42,-2.73,1770370101.593848
-0.227896,-0.028792,1.011868,-2.31,0.07,-1.61,1770370101.601846
-0.22814,-0.03172,1.009428,1.75,-0.91,-4.83,1770370101.609823
-0.227164,-0.02806,1.00528,0.7,-0.42,-1.82,1770370101.617959
-0.225944,-0.023912,1.004792,-0.07,-0.07,-0.7,1770370101.625856
-0.226432,-0.023912,1.0004,-0.42,-0.7,-2.17,1770370101.633845
-0.224724,-0.02684,0.997228,0.49,0.63,-1.47,1770370101.641888
-0.22448,-0.027572,0.997472,1.12,-0.98,-3.71,1770370101.649847
-0.22448,-0.02562,0.994544,-1.12,0.7,-1.96,1770370101.657942
-0.225944,-0.030988,0.995276,3.01,0.07,-1.96,1770370101.665868
-0.227652,-0.027084,0.992348,0.77,-0.84,-4.27,1770370101.673869
-0.23058,-0.030988,0.992592,0.21,1.05,-3.08,1770370101.68186
-0.228872,-0.030744,0.994544,2.87,-0.7,-1.19,1770370101.689847
-0.230092,-0.033916,0.997228,1.33,-0.21,-3.64,1770370101.697952
-0.229116,-0.03172,1.003816,2.87,0.07,-2.38,1770370101.705864
-0.23058,-0.034892,1.004304,1.68,-0.07,-3.15,1770370101.713892
-0.232288,-0.032696,1.002352,0.49,0.49,-2.03,1770370101.721858
-0.22936,-0.032696,1.00406,3.43,-0.49,-6.09,1770370101.729847
-0.228628,-0.030988,1.009672,-0.7,-0.14,-3.64,1770370101.737847
-0.228384,-0.02928,1.01016,0.7,-0.49,-2.17,1770370101.745846
-0.227408,-0.027816,1.013332,-2.45,0.14,-2.73,1770370101.753933
-0.23058,-0.027572,1.017968,-1.54,0.63,-2.59,1770370101.761871
-0.233264,-0.029768,1.01748,0.98,0.42,-6.3,1770370101.769845
-0.233996,-0.03172,1.009428,-2.24,0.98,-4.76,1770370101.777852
-0.233264,-0.03172,1.004792,1.54,0.07,-3.85,1770370101.785871
-0.23302,-0.031232,1.0004,-0.91,0.28,-4.9,1770370101.793834
-0.233508,-0.0244,0.997716,-1.19,0.7,-2.87,1770370101.80185
-0.233752,-0.020252,1.00284,3.22,-0.28,-4.55,1770370101.809849
-0.231312,-0.014152,1.009672,1.33,-0.14,-3.15,1770370101.817841
-0.23058,-0.00732,1.011868,0.98,0.42,-3.92,1770370101.825858
-0.233752,-0.003416,1.013332,1.33,-0.49,-4.41,1770370101.833863
-0.233508,-0.003416,1.010404,-0.77,0.63,-2.73,1770370101.841866
-0.233996,-0.003904,1.009916,1.75,0.28,-5.53,1770370101.849849
-0.233996,-0.006832,1.01138,-1.19,-1.47,-4.62,1770370101.857859
-0.235216,-0.010736,1.008696,1.19,-0.84,-3.43,1770370101.865939
-0.230824,-0.015372,1.011624,1.47,-0.98,-4.83,1770370101.873876
-0.23302,-0.019032,1.010892,-0.56,-0.77,-1.82,1770370101.881899
-0.229116,-0.019764,1.01382,2.52,-1.54,-5.04,1770370101.889853
-0.227652,-0.020496,1.013088,0.0,-1.4,-1.19,1770370101.897859
-0.227164,-0.020496,1.018456,2.87,-1.19,-1.4,1770370101.906047
-0.224236,-0.02318,1.01992,0.7,-1.75,0.35,1770370101.913842
-0.225212,-0.02196,1.020652,2.31,-3.08,-0.35,1770370101.922188
-0.22326,-0.019276,1.016992,1.89,-1.47,-2.59,1770370101.929904
-0.224236,-0.017568,1.01138,0.0,-1.47,-0.07,1770370101.937843
-0.224968,-0.014396,1.002596,0.0,-1.26,-2.52,1770370101.945965
-0.226188,-0.014152,0.9943,-2.1,-0.63,-1.75,1770370101.953845
-0.22692,-0.016104,0.989664,-2.66,0.07,-0.7,1770370101.961849
-0.23058,-0.013664,0.988688,1.82,-1.47,-3.36,1770370101.969834
-0.227408,-0.021228,0.989908,-3.01,0.28,0.0,1770370101.97784
-0.226676,-0.019032,0.993812,1.12,-1.05,-1.68,1770370101.985861
-0.22448,-0.022448,1.001376,0.0,-0.98,-1.4,1770370101.99387
-0.227164,-0.024888,1.004548,-3.01,-1.19,-2.8,1770370102.001845
-0.228628,-0.02806,1.003572,0.56,-0.63,-1.12,1770370102.009848
-0.225212,-0.03416,1.002596,-0.21,-0.91,-0.63,1770370102.017854
-0.225456,-0.036356,1.001864,1.89,-0.07,-1.4,1770370102.025902
-0.225944,-0.032208,1.009916,-1.12,1.47,0.98,1770370102.033862
-0.22936,-0.02928,1.0126,-2.03,1.61,-0.35,1770370102.041853
-0.229604,-0.027816,1.011624,1.96,1.47,-1.68,1770370102.050002
-0.235216,-0.0244,1.006744,-0.42,0.84,-0.14,1770370102.058055
-0.237412,-0.023668,1.006256,1.68,0.63,-1.61,1770370102.066062
-0.24156,-0.022448,1.006256,0.0,1.05,-1.96,1770370102.074121
-0.241804,-0.019276,1.009428,-1.26,1.4,-1.26,1770370102.081881
-0.243024,-0.020496,1.009428,2.66,0.07,-1.05,1770370102.089859
-0.244,-0.027084,1.009916,-1.54,1.54,-0.98,1770370102.09793
-0.247172,-0.027816,1.011868,0.77,0.7,-1.4,1770370102.105868
-0.242292,-0.027328,1.007232,1.89,-0.49,-1.61,1770370102.113844
-0.243512,-0.025864,1.003328,-1.33,-0.28,-0.49,1770370102.121839
-0.24522,-0.022936,1.000888,0.35,-1.26,-0.7,1770370102.130095
-0.240584,-0.021228,1.0004,-0.63,-1.4,-0.07,1770370102.137859
-0.237656,-0.021716,1.003328,-0.98,-1.54,-1.26,1770370102.145847
-0.23546,-0.024156,1.004304,-1.75,-1.82,-0.63,1770370102.153858
-0.23424,-0.024156,1.006744,-0.98,-0.35,-2.24,1770370102.161849
-0.23668,-0.026108,1.003328,1.68,-2.73,-3.29,1770370102.169844
-0.2318,-0.027328,1.00284,-0.63,-2.52,-1.12,1770370102.177908
-0.2318,-0.029036,1.00284,1.4,-1.82,-0.28,1770370102.185856
-0.231068,-0.031232,0.997716,0.21,-2.17,-0.91,1770370102.193844
-0.233508,-0.027572,1.005768,-1.12,-0.63,-1.47,1770370102.201842
-0.230092,-0.02074,1.011136,0.91,-1.4,-3.71,1770370102.209833
-0.232776,-0.019032,1.010648,0.42,-0.98,-0.49,1770370102.217846
-0.231312,-0.016104,1.01138,0.98,-1.75,-2.59,1770370102.225947
-0.23424,-0.02074,1.002596,-0.21,-1.19,0.35,1770370102.233863
-0.231068,-0.021716,1.002352,-1.68,-0.84,-1.05,1770370102.241835
-0.231312,-0.023424,1.00528,0.98,-1.96,-3.29,1770370102.249871
-0.226676,-0.022204,1.004548,-1.68,0.63,-1.47,1770370102.258002
-0.227408,-0.02074,1.006988,0.0,-1.05,-1.12,1770370102.265837
-0.226188,-0.024888,1.009428,-1.68,-0.35,-2.45,1770370102.273843
-0.22692,-0.027084,1.007964,0.0,-0.63,-2.8,1770370102.281841
-0.226432,-0.024888,1.008696,1.12,-1.4,-3.64,1770370102.289849
-0.230092,-0.020984,1.006744,0.0,-2.17,-0.63,1770370102.297918
-0.22692,-0.02196,1.004304,1.26,-0.7,-1.82,1770370102.305857
-0.227408,-0.021716,1.003816,0.0,0.42,-1.68,1770370102.313845
-0.231556,-0.02074,1.00406,-2.03,1.61,-3.5,1770370102.32184
-0.236436,-0.020008,1.004792,1.12,0.56,-0.77,1770370102.329934
-0.238876,-0.019032,1.005036,-0.14,0.49,-1.26,1770370102.337847
-0.243024,-0.023424,1.00406,0.28,0.28,-2.17,1770370102.345842
-0.243268,-0.022204,1.006988,0.0,-0.7,-0.7,1770370102.353841
-0.24522,-0.024156,1.002596,0.14,-0.7,-0.49,1770370102.362239
-0.244,-0.021472,1.003328,0.77,-0.98,-0.35,1770370102.369876
-0.241072,-0.02196,1.003328,1.47,-1.96,-1.47,1770370102.377835
-0.239608,-0.020984,1.003816,0.77,-1.54,0.21,1770370102.385853
-0.237168,-0.018056,1.003572,2.03,-2.03,-1.47,1770370102.39385
-0.237412,-0.01586,1.004792,-0.63,-1.75,-2.03,1770370102.401911
-0.236436,-0.016836,0.999424,2.66,-2.17,-1.47,1770370102.409846
-0.240828,-0.015128,0.996496,0.56,-1.96,-4.97,1770370102.417847
-0.242048,-0.0183,0.995764,1.89,-0.49,-1.61,1770370102.425995
-0.238144,-0.0183,0.996496,1.33,-1.12,-4.27,1770370102.433843
-0.236192,-0.019764,0.99674,-0.7,-0.84,-3.15,1770370102.441854
-0.2379,-0.022204,0.998936,1.54,-0.49,-3.5,1770370102.449906
-0.232776,-0.0244,0.999912,0.42,-0.84,-2.17,1770370102.457853
-0.234728,-0.026108,1.00284,-1.33,-0.63,-1.47,1770370102.465851
-0.232288,-0.027572,1.002352,0.98,-1.4,-3.15,1770370102.473851
-0.233996,-0.02806,1.006256,0.77,-2.38,0.7,1770370102.481847
-0.233264,-0.024644,1.007964,0.63,-1.19,-1.68,1770370102.489969
-0.233752,-0.024156,1.008452,1.4,-0.07,-6.65,1770370102.497852
-0.22936,-0.02684,1.004304,1.19,-0.49,-1.12,1770370102.505847
-0.23302,-0.030012,1.002108,1.12,-1.61,-4.76,1770370102.513878
-0.229848,-0.025376,1.005036,0.91,-1.4,-1.12,1770370102.52184
-0.22692,-0.024156,1.007232,0.42,-1.61,0.42,1770370102.53023
-0.22692,-0.020496,1.01016,1.54,-0.84,-1.47,1770370102.53785
-0.229116,-0.020008,1.000644,2.31,-0.84,-1.75,1770370102.545846
-0.230092,-0.023424,1.003816,-0.56,-1.82,-3.08,1770370102.553842
-0.231068,-0.02074,1.002352,-1.54,-0.35,-2.24,1770370102.561941
-0.23302,-0.02074,1.012844,1.89,-0.07,-5.04,1770370102.569894
-0.237168,-0.018544,1.016748,0.0,1.26,-0.49,1770370102.577929
-0.239608,-0.01708,1.013332,0.84,0.63,-1.4,1770370102.58586
-0.24156,-0.016104,1.010648,1.33,0.14,-4.06,1770370102.593849
-0.245952,-0.017812,1.008208,-0.35,-0.28,-1.89,1770370102.601848
-0.243268,-0.012688,1.00528,3.92,-0.14,-6.58,1770370102.609876
-0.24034,-0.011468,1.007232,0.91,-0.14,0.0,1770370102.617982
-0.239608,-0.005124,1.007964,1.89,-0.28,-1.61,1770370102.625827
-0.23668,-0.00488,1.004548,1.54,-0.49,-1.05,1770370102.633862
-0.23912,-0.00976,1.003572,-0.56,-0.21,-1.4,1770370102.641863
-0.235216,-0.014884,1.001864,1.82,-1.33,-4.27,1770370102.649833
-0.239364,-0.020008,1.00406,-0.56,-0.63,-1.12,1770370102.657838
-0.235948,-0.026108,1.003572,-2.24,-0.91,-3.85,1770370102.665845
-0.234484,-0.028304,1.000888,1.26,-1.19,0.21,1770370102.674046
-0.237656,-0.029768,1.00162,-1.33,0.49,-4.27,1770370102.681866
-0.237656,-0.0305,0.998692,1.12,-1.05,-2.94,1770370102.68988
-0.241072,-0.027816,0.99796,-1.19,0.14,0.7,1770370102.697859
-0.239364,-0.025132,0.995764,0.7,0.14,-2.38,1770370102.705852
-0.241804,-0.027572,0.99552,-0.35,-1.4,-0.14,1770370102.713877
-0.24034,-0.029768,0.995276,-0.56,-1.05,-1.89,1770370102.721846
-0.240828,-0.030256,0.998204,0.35,-1.26,-2.03,1770370102.729863
-0.23546,-0.032696,0.9943,0.91,-1.61,-0.77,1770370102.737854
-0.236436,-0.033916,0.994056,0.7,-2.73,-3.71,1770370102.74588
-0.233752,-0.035868,0.992104,1.12,-2.94,0.91,1770370102.753829
-0.231556,-0.033184,0.995032,1.89,-0.84,-3.29,1770370102.761949
-0.22814,-0.034404,1.000644,0.14,-1.26,-1.26,1770370102.769852
-0.225944,-0.033916,1.003572,3.01,-1.61,-1.82,1770370102.778074
-0.23058,-0.033672,1.004304,1.47,-2.03,-6.72,1770370102.785836
-0.229848,-0.029768,1.009672,0.91,-1.19,-1.61,1770370102.793852
-0.23058,-0.024644,1.01382,-1.12,0.35,-5.18,1770370102.801845
-0.229604,-0.02318,1.018456,0.07,0.77,-1.68,1770370102.809849
-0.22814,-0.022692,1.019676,0.21,0.7,0.21,1770370102.817913
-0.233996,-0.02074,1.022848,-0.56,-0.35,-3.5,1770370102.825851
-0.23424,-0.021228,1.0187,0.35,0.7,-2.31,1770370102.833848
-0.233996,-0.018788,1.011136,-1.19,0.49,-4.2,1770370102.841867
-0.237656,-0.020008,1.00772,0.98,-0.56,-3.15,1770370102.84985
-0.2379,-0.015372,1.002108,-0.35,-0.7,-2.59,1770370102.857848
-0.234484,-0.014884,0.995764,-0.35,-0.35,-0.49,1770370102.865855
-0.233996,-0.016104,0.995764,-1.19,-1.96,-2.73,1770370102.873833
-0.2318,-0.017324,0.990152,-0.42,-2.03,-1.82,1770370102.881855
-0.228628,-0.016348,0.989908,-0.98,-0.98,-2.59,1770370102.889854
-0.225456,-0.012444,0.987224,1.47,-0.84,-2.8,1770370102.8979
-0.222772,-0.011224,0.991372,0.7,-0.84,-3.15,1770370102.905852
-0.225944,-0.012932,0.997228,1.19,-1.75,-1.75,1770370102.91385
-0.226676,-0.0122,0.99918,-0.49,-0.28,-1.26,1770370102.92185
-0.231312,-0.012932,1.004792,1.54,0.7,-6.79,1770370102.9299
-0.230336,-0.01586,1.00894,-0.56,0.63,1.75,1770370102.937865
-0.235216,-0.017568,1.011136,0.21,1.4,-4.27,1770370102.945858
-0.237412,-0.016836,1.013088,1.96,1.05,-1.68,1770370102.953852
-0.24156,-0.021716,1.00894,-2.24,0.84,-4.41,1770370102.961873
-0.24156,-0.022448,1.009428,3.43,-0.28,-3.71,1770370102.969879
-0.23912,-0.024644,1.009672,-0.21,0.28,-3.85,1770370102.977876
-0.236192,-0.026596,1.005036,-1.33,-0.63,-3.64,1770370102.985847
-0.237412,-0.026596,1.00772,0.35,-1.54,-1.82,1770370102.99385
-0.233996,-0.02928,1.008208,-1.75,-2.31,-2.87,1770370103.001861
-0.23668,-0.027328,1.005768,1.54,-2.1,-4.83,1770370103.009845
-0.233996,-0.027572,1.006988,0.07,-2.59,-5.32,1770370103.01785
-0.231556,-0.028304,1.002108,-0.14,-1.54,-4.97,1770370103.025881
-0.233264,-0.027084,0.998936,0.14,-0.63,-2.87,1770370103.033859
-0.229848,-0.026352,1.003084,-1.47,-1.75,-4.06,1770370103.04185
-0.23058,-0.026108,1.005036,3.22,-1.61,-4.97,1770370103.049849
-0.231312,-0.027084,1.00772,-0.35,-1.89,-4.2,1770370103.058536
-0.228384,-0.027572,1.012112,1.54,-1.61,-0.7,1770370103.066142
-0.228628,-0.024644,1.01382,1.89,-0.84,-3.5,1770370103.073971
-0.229116,-0.021228,1.017968,-0.98,-0.84,-4.41,1770370103.081876
-0.229848,-0.019032,1.021384,3.43,-0.98,-3.29,1770370103.089857
-0.226432,-0.01952,1.016992,0.49,-0.63,-3.85,1770370103.097982
-0.230092,-0.018544,1.015528,0.42,-1.19,-2.73,1770370103.105846
-0.22814,-0.018056,1.015284,0.63,-1.47,-3.15,1770370103.11385
-0.230336,-0.021228,1.013576,-1.75,-0.84,-4.2,1770370103.12188
-0.226432,-0.02074,1.01626,2.66,-2.87,-4.97,1770370103.129858
-0.23058,-0.020496,1.011624,-0.63,-1.82,-2.73,1770370103.137899
-0.230336,-0.019276,1.004792,1.26,-2.52,-2.17,1770370103.145878
-0.231556,-0.018788,0.99918,0.21,-3.08,-1.61,1770370103.153846
-0.231068,-0.017812,0.989176,-2.87,-1.05,-3.43,1770370103.161832
-0.23058,-0.014396,0.987468,2.1,-1.47,-2.24,1770370103.169852
-0.229604,-0.0122,0.990396,-1.54,-0.91,-3.71,1770370103.177865
-0.231312,-0.010492,0.992836,0.21,-1.4,-2.03,1770370103.185863
-0.232288,-0.011468,0.999668,-1.82,-2.24,-3.85,1770370103.193885
-0.231312,-0.014396,0.998448,-2.24,-1.61,-1.68,1770370103.201842
-0.22814,-0.015372,0.996984,0.07,-2.17,-3.99,1770370103.209843
-0.228384,-0.024888,0.9943,-1.19,-2.24,-3.57,1770370103.217843
-0.223992,-0.031232,0.996008,0.0,-1.96,-1.61,1770370103.225848
-0.218624,-0.030256,1.001132,0.21,-1.19,-3.85,1770370103.234037
-0.213012,-0.026596,1.005524,0.21,-0.49,-1.12,1770370103.241849
-0.216672,-0.022448,1.014064,2.52,-0.49,-5.32,1770370103.249847
-0.219356,-0.023424,1.019188,-0.56,-1.19,-3.08,1770370103.257846
-0.223016,-0.023424,1.020164,1.19,-0.14,-1.47,1770370103.265812
-0.229604,-0.026352,1.01748,1.75,-0.35,-1.54,1770370103.273842
-0.233508,-0.028548,1.018944,-0.28,1.4,-1.89,1770370103.281841
-0.230824,-0.027084,1.016992,3.43,-0.14,-4.76,1770370103.289842
-0.237412,-0.029524,1.014064,0.21,-0.14,-1.82,1770370103.297892
-0.239608,-0.02928,1.015528,0.21,-0.7,-4.2,1770370103.305842
-0.237412,-0.029524,1.010892,0.56,-1.54,0.0,1770370103.313844
-0.231556,-0.0305,1.003572,-0.77,-0.7,-4.06,1770370103.321839
-0.235216,-0.029036,1.00162,0.35,-0.49,-3.22,1770370103.32984
-0.228628,-0.029768,1.001864,-1.33,-0.91,-0.21,1770370103.33786
-0.233996,-0.0305,1.001376,0.35,0.07,-3.29,1770370103.345844
-0.23302,-0.030012,0.99674,-1.54,-1.61,-1.19,1770370103.35384
-0.233752,-0.0305,1.000156,0.21,-0.84,-2.03,1770370103.36211
-0.232288,-0.0305,0.995032,1.19,-1.61,-1.61,1770370103.369889
-0.23668,-0.02562,0.996252,1.33,-1.96,-3.71,1770370103.377832
-0.235704,-0.02684,0.996008,0.42,-1.75,-4.41,1770370103.385851
-0.234972,-0.025132,1.001132,1.54,-1.96,-3.29,1770370103.393861
-0.236192,-0.024644,1.00284,-0.42,-0.98,-3.57,1770370103.401862
-0.23546,-0.021228,1.004792,2.8,-2.17,-2.31,1770370103.409847
-0.23546,-0.018788,1.008208,1.12,-1.26,-3.85,1770370103.417847
-0.234484,-0.017568,1.009184,-2.59,-1.26,-3.08,1770370103.425889
-0.231312,-0.018788,1.008696,0.84,-2.59,-4.48,1770370103.433903
-0.23058,-0.020496,1.007476,-1.68,-1.61,-2.52,1770370103.441829
-0.228872,-0.0244,1.009428,2.52,-1.82,-6.79,1770370103.44985
-0.227408,-0.026352,1.00528,-1.19,-2.17,-3.85,1770370103.457851
-0.226432,-0.025132,1.001132,0.42,-1.26,-3.08,1770370103.465982
-0.224724,-0.025376,1.003816,1.12,-2.8,-3.92,1770370103.473842
-0.22448,-0.024156,1.00406,-1.33,-1.26,-4.83,1770370103.48185
-0.223992,-0.025132,1.002352,0.98,-1.82,-2.52,1770370103.48985
-0.224724,-0.023668,1.000644,1.4,-1.54,-5.18,1770370103.497898
-0.223992,-0.024888,1.004792,1.33,-1.26,-3.01,1770370103.506042
-0.2257,-0.022936,1.014796,2.24,-0.91,-4.34,1770370103.513849
-0.228628,-0.020008,1.01748,-2.03,0.07,-1.47,1770370103.521848
-0.229116,-0.022692,1.015528,2.52,-0.35,-3.99,1770370103.529845
-0.236192,-0.02562,1.014064,0.21,-0.28,-1.96,1770370103.537861
-0.237168,-0.027084,1.01138,0.77,-0.42,-3.22,1770370103.545827
-0.237656,-0.025132,1.010648,-0.28,-0.49,-3.43,1770370103.553879
-0.235216,-0.022204,1.004304,-0.14,0.49,-3.36,1770370103.561959
-0.233508,-0.021472,1.005036,3.36,-0.7,-4.83,1770370103.569838
-0.22936,-0.021716,1.00284,-0.56,-1.4,-4.2,1770370103.57785
-0.228384,-0.021472,1.00406,2.1,-1.96,-2.59,1770370103.585845
-0.227896,-0.025864,1.000644,0.35,-1.96,-4.41,1770370103.593868
-0.227652,-0.024644,1.00284,0.35,0.07,-1.96,1770370103.601855
-0.22814,-0.024888,1.004304,2.31,-0.7,-4.41,1770370103.609851
-0.22692,-0.024644,1.007964,1.12,-0.63,-2.52,1770370103.617849
-0.22814,-0.022692,1.00528,-1.47,-0.14,-2.87,1770370103.625874
-0.232532,-0.020984,1.00772,-1.12,-0.49,-3.36,1770370103.634094
-0.22814,-0.021228,1.004792,-1.47,-0.07,-3.5,1770370103.641834
-0.22936,-0.018056,1.005524,2.24,-1.4,-5.46,1770370103.649858
-0.23058,-0.015128,1.003084,0.21,-0.84,-3.5,1770370103.657875
-0.23058,-0.01708,1.000156,0.14,-0.49,-4.34,1770370103.66584
-0.233752,-0.019764,1.003328,3.43,-0.84,-2.1,1770370103.673831
-0.229116,-0.017812,1.003084,-1.12,-1.19,-1.61,1770370103.681864
-0.229848,-0.018544,1.005768,2.24,-1.4,-4.62,1770370103.689897
-0.229116,-0.021472,1.007476,2.31,-1.75,-1.47,1770370103.697873
-0.228872,-0.022448,1.006744,1.47,-0.7,-2.24,1770370103.705847
-0.227896,-0.022936,1.00772,0.56,-1.75,-2.8,1770370103.713918
-0.22936,-0.023668,1.002352,-0.77,-1.19,-3.29,1770370103.721859
-0.229116,-0.022448,1.003572,2.87,-0.84,-2.52,1770370103.729919
-0.229604,-0.0183,1.004304,-0.56,-2.24,-1.33,1770370103.73793
-0.229848,-0.020984,1.004792,2.8,-1.4,-3.15,1770370103.745932
-0.227896,-0.02196,1.004548,-0.14,-2.17,-1.82,1770370103.753853
-0.2318,-0.024888,1.00406,-1.68,-1.82,-3.5,1770370103.761844
-0.227652,-0.027816,1.005036,0.91,-2.24,-4.48,1770370103.769842
-0.2257,-0.032208,0.998448,-0.77,-1.82,-1.96,1770370103.777869
-0.22448,-0.030988,0.997228,0.35,-1.54,-3.36,1770370103.785926
-0.222528,-0.035624,0.99796,0.77,-0.28,-1.96,1770370103.793842
-0.220088,-0.035136,0.998448,-0.21,0.42,-4.41,1770370103.801852
-0.222284,-0.036112,1.003328,2.24,-0.63,-1.96,1770370103.809964
-0.22326,-0.033916,1.006988,0.77,0.28,-3.99,1770370103.817844
-0.2257,-0.03294,1.009672,0.77,0.42,-1.82,1770370103.825844
-0.228872,-0.033672,1.010648,0.98,0.28,-5.39,1770370103.833862
-0.227652,-0.030988,1.009916,0.77,-1.05,-5.11,1770370103.84196
-0.229116,-0.030744,1.009916,3.08,-1.47,-3.08,1770370103.849883
-0.230092,-0.032696,1.007964,0.21,-0.84,-1.89,1770370103.857851
-0.230824,-0.030988,1.006012,-0.42,-0.07,-2.94,1770370103.865855
-0.234728,-0.032208,1.009184,-0.56,0.84,-3.29,1770370103.873838
-0.233264,-0.035868,1.004548,-2.24,-0.7,-3.43,1770370103.881885
-0.23302,-0.034648,1.004548,2.87,-0.63,-5.04,1770370103.889851
-0.233996,-0.029768,1.005524,-0.63,-1.61,-2.73,1770370103.897852
-0.232288,-0.02684,1.004548,0.35,-1.61,-3.29,1770370103.905853
-0.22814,-0.023912,1.004548,1.68,-1.82,-3.43,1770370103.913958
-0.22936,-0.024156,1.002596,-0.21,-1.61,-2.59,1770370103.921857
-0.229604,-0.023424,1.004304,1.12,-1.82,-3.01,1770370103.929871
-0.227896,-0.022692,1.00162,-0.49,-1.54,-2.94,1770370103.937896
-0.22814,-0.02196,1.000644,0.91,-1.54,-4.48,1770370103.945893
-0.235948,-0.021228,0.995032,-1.82,-0.28,-2.38,1770370103.953856
-0.233508,-0.01952,0.995032,-0.35,-0.07,-3.15,1770370103.961921
-0.235216,-0.021228,0.993568,0.63,-0.14,-6.65,1770370103.969835
-0.236924,-0.01586,1.00284,-0.77,-0.14,-3.71,1770370103.977941
-0.236436,-0.015128,1.006012,0.98,-0.49,-4.76,1770370103.985839
-0.236924,-0.013664,1.009916,2.52,-1.61,-5.46,1770370103.993846
-0.233752,-0.0183,1.01382,-1.12,-1.82,-2.73,1770370104.001855
-0.233264,-0.020496,1.017724,1.54,-2.8,-6.09,1770370104.009889
-0.229604,-0.02318,1.018212,0.98,-1.26,-1.61,1770370104.017857
-0.230824,-0.018544,1.016504,1.89,-2.17,-3.29,1770370104.025853
-0.228872,-0.019032,1.012112,1.19,-0.98,-3.15,1770370104.033865
-0.22692,-0.01708,1.005768,0.21,-2.8,-2.59,1770370104.041851
-0.221552,-0.018056,1.007232,2.31,-1.4,-3.57,1770370104.049856
-0.223748,-0.020252,1.007964,-0.77,-0.98,-3.99,1770370104.057977
-0.224968,-0.026596,1.00528,2.31,-0.63,-0.7,1770370104.06615
-0.222772,-0.031232,1.001864,-1.68,0.07,-5.46,1770370104.074232
-0.221308,-0.03416,1.001376,-2.8,0.28,-3.36,1770370104.081877
-0.224968,-0.034648,1.002352,0.35,0.77,-4.2,1770370104.089857
-0.221552,-0.033428,1.000156,-0.56,0.07,-4.06,1770370104.097862
-0.225456,-0.032452,1.002108,-0.91,-0.77,-2.38,1770370104.105901
-0.225944,-0.031232,1.000644,2.24,-0.14,-3.29,1770370104.113877
-0.22814,-0.028792,1.001132,-1.33,0.28,-2.17,1770370104.121841
-0.23058,-0.026108,1.002596,2.24,0.77,-5.53,1770370104.12986
-0.231312,-0.024644,1.007476,-1.82,0.35,-1.47,1770370104.138127
-0.231312,-0.021472,1.009428,0.91,-0.7,-3.08,1770370104.145828
-0.230824,-0.021228,1.009916,0.77,0.28,-2.24,1770370104.153845
-0.2318,-0.022936,1.011868,-1.89,0.49,-0.56,1770370104.161841
-0.235216,-0.024888,1.011624,2.59,-0.84,-2.94,1770370104.16983
-0.2318,-0.025376,1.011136,-0.35,-0.7,-1.82,1770370104.177877
-0.2318,-0.024888,1.018212,-0.42,-1.26,-1.89,1770370104.185827
-0.229116,-0.02684,1.016748,-0.98,-1.19,-2.03,1770370104.193841
-0.229848,-0.024156,1.01626,-1.54,0.07,-1.26,1770370104.201894
-0.230824,-0.021228,1.013332,1.75,-0.14,-3.85,1770370104.209872
-0.230824,-0.021716,1.015772,0.56,-2.87,-1.05,1770370104.217837
-0.230824,-0.020008,1.011624,1.33,-1.61,-2.38,1770370104.225833
-0.230092,-0.01952,1.01016,-1.89,-2.73,-1.47,1770370104.233974
-0.232776,-0.017324,1.004304,-1.75,-2.52,0.35,1770370104.241844
-0.233752,-0.016348,0.99552,2.03,-1.26,-4.06,1770370104.24985
-0.232532,-0.016104,0.99064,-2.24,-1.4,-1.82,1770370104.25784
-0.23058,-0.016836,0.988444,-2.45,-2.31,-2.8,1770370104.265838
-0.229116,-0.016836,0.985516,-1.26,-2.52,-0.91,1770370104.273839
-0.225456,-0.019032,0.990152,-1.89,-1.82,-1.05,1770370104.281826
-0.222772,-0.020008,0.99552,0.63,-2.52,-3.5,1770370104.289854
-0.221064,-0.024156,0.99552,-1.54,-1.47,-2.59,1770370104.297978
-0.221064,-0.027084,1.00162,1.12,-1.47,-1.68,1770370104.305846
-0.223016,-0.02562,1.005036,2.31,-1.19,-0.56,1770370104.313842
-0.222284,-0.027084,1.0065,-1.33,0.49,-3.08,1770370104.321838
-0.221308,-0.02928,1.011136,2.24,-0.28,-4.76,1770370104.329842
-0.223992,-0.028792,1.016748,-1.68,0.77,-0.91,1770370104.338079
-0.227652,-0.027328,1.015284,0.14,0.7,-1.05,1770370104.345819
-0.22936,-0.02806,1.016504,1.33,0.84,-0.91,1770370104.353848
-0.232532,-0.025864,1.01138,-0.7,0.28,-1.26,1770370104.361849
-0.23424,-0.034404,1.011136,0.0,-0.28,-1.61,1770370104.369935
-0.2318,-0.030988,1.012844,0.98,0.28,-4.06,1770370104.377875
-0.236924,-0.031232,1.008208,-1.19,-0.14,-1.26,1770370104.385844
-0.233264,-0.030988,1.006744,-0.14,-1.61,-2.03,1770370104.393856
-0.233996,-0.0305,1.006012,-2.45,-0.84,1.12,1770370104.401951
-0.234484,-0.03538,1.001132,1.89,-1.54,-3.71,1770370104.409847
-0.230336,-0.033184,1.000156,-1.33,-2.17,-4.48,1770370104.417846
-0.227652,-0.034404,1.000888,-0.42,-0.49,-1.12,1770370104.425844
-0.224724,-0.033916,0.998448,2.03,-1.4,-4.06,1770370104.433949
-0.2257,-0.032208,0.996496,-1.4,-0.14,-2.31,1770370104.441844
-0.221796,-0.031476,0.99796,3.36,-0.28,-4.83,1770370104.449859
-0.225944,-0.029524,1.003084,0.77,0.14,-0.91,1770370104.457923
-0.2257,-0.0244,1.012112,2.24,-0.07,-2.52,1770370104.465855
-0.229604,-0.027572,1.012112,2.66,1.19,-2.8,1770370104.473848
-0.23302,-0.027328,1.010892,-1.89,-0.07,-0.77,1770370104.481827
-0.23546,-0.029036,1.011136,1.54,0.7,-2.52,1770370104.489847
-0.2379,-0.028548,1.009916,1.12,0.77,-2.38,1770370104.497855
-0.235216,-0.026352,1.01138,1.54,0.63,-2.59,1770370104.505919
-0.235704,-0.023668,1.006988,0.7,-0.07,-2.73,1770370104.513837
-0.234484,-0.026596,1.007964,0.98,-0.63,-1.68,1770370104.521886
-0.229604,-0.026596,1.006012,1.68,-1.75,-4.27,1770370104.529849
-0.227164,-0.026108,1.0065,-0.91,-1.61,-3.71,1770370104.537894
-0.225944,-0.026352,1.006256,2.45,-1.26,-1.05,1770370104.54597
-0.224236,-0.025864,1.005036,1.19,-0.14,-3.71,1770370104.553847
-0.22814,-0.029768,1.002352,-0.56,0.21,-0.84,1770370104.561846
-0.226432,-0.02806,1.003084,2.45,-0.98,-2.59,1770370104.569845
-0.229848,-0.02806,1.005524,1.96,-0.49,-1.96,1770370104.577948
-0.232532,-0.027572,1.00284,-0.35,-1.19,-2.94,1770370104.585847
-0.230336,-0.025864,1.002596,0.0,-0.84,-0.84,1770370104.593845
-0.23668,-0.027572,0.999668,-1.12,0.07,-2.31,1770370104.601845
-0.235704,-0.02928,0.999912,2.52,-1.54,-4.27,1770370104.609848
-0.23424,-0.026352,1.00284,-0.42,-1.82,-2.73,1770370104.617883
-0.232044,-0.022936,1.005036,-0.91,-1.96,-2.8,1770370104.625942
-0.233752,-0.025376,1.009184,1.47,-1.05,-0.35,1770370104.633845
-0.230336,-0.02318,1.008696,-2.03,-1.33,-5.39,1770370104.641843
-0.227652,-0.022936,1.011868,2.03,-2.87,-0.77,1770370104.649973
-0.227164,-0.025132,1.008208,-0.21,-2.31,-2.59,1770370104.657847
-0.228628,-0.024156,1.001132,1.54,-2.59,-4.97,1770370104.66585
-0.225944,-0.028304,1.004304,1.33,-2.17,-1.05,1770370104.67385
-0.22204,-0.030744,1.00528,0.21,-1.33,-3.5,1770370104.681897
-0.223504,-0.027328,1.007476,3.71,-0.63,-2.31,1770370104.689835
-0.22204,-0.029768,1.01138,0.21,-1.47,-2.24,1770370104.697839
-0.224236,-0.028304,1.01504,-1.68,-0.63,-2.52,1770370104.705847
-0.227164,-0.027572,1.0126,1.19,-0.63,-1.05,1770370104.713923
-0.2318,-0.027816,1.012112,-2.03,1.82,-4.06,1770370104.721904
-0.229604,-0.027816,1.008696,2.24,-0.84,-4.2,1770370104.729847
-0.229604,-0.026596,1.005524,-0.07,-1.4,-1.33,1770370104.737869
-0.22936,-0.026596,1.003816,0.42,-1.61,-1.26,1770370104.745858
-0.2318,-0.02562,1.004548,1.75,-1.05,-1.47,1770370104.753903
-0.227652,-0.025132,1.003572,-0.56,-1.61,-1.68,1770370104.761988
-0.225212,-0.024156,1.003572,2.24,-1.75,-2.59,1770370104.769842
-0.225944,-0.028304,1.004792,1.12,-0.77,-2.38,1770370104.777841
-0.22692,-0.02684,1.003816,2.03,-0.98,-4.27,1770370104.785838
-0.222528,-0.029036,1.004548,0.7,-0.84,-1.82,1770370104.793831
-0.223748,-0.033428,1.006256,-0.91,-1.05,-3.15,1770370104.801965
-0.220088,-0.031964,1.003328,1.68,-0.28,-3.43,1770370104.809856
-0.223016,-0.030988,1.0065,0.21,1.75,-3.08,1770370104.817847
-0.2257,-0.02928,1.006012,-0.14,1.05,-1.89,1770370104.825842
-0.228628,-0.029524,1.005768,0.14,1.19,-1.47,1770370104.833871
-0.232532,-0.02928,1.006256,-2.03,2.38,-2.24,1770370104.84195
-0.234972,-0.030256,1.006988,1.33,1.47,-2.03,1770370104.849855
-0.236436,-0.027328,1.008696,0.21,-0.07,-2.38,1770370104.857852
-0.236192,-0.02806,1.0065,0.77,-0.28,-1.75,1770370104.865862
-0.234728,-0.029768,1.006988,1.19,-1.4,-2.73,1770370104.873878
-0.23668,-0.027328,1.00162,-1.12,-1.96,-1.26,1770370104.881855
-0.233996,-0.025376,1.003084,1.47,-1.4,-4.06,1770370104.889851
-0.233996,-0.023668,1.003816,1.82,-1.4,-1.26,1770370104.897842
-0.23424,-0.021472,1.003328,-2.38,-1.96,-3.64,1770370104.905848
-0.233508,-0.021228,1.00894,0.98,-2.52,-0.56,1770370104.913851
-0.235948,-0.015616,1.015284,0.7,-1.26,-2.94,1770370104.921996
-0.231556,-0.015128,1.011868,3.99,-2.31,-2.17,1770370104.929875
-0.233264,-0.018788,1.011868,0.21,-2.17,-1.82,1770370104.937878
-0.230336,-0.0183,1.011868,0.77,-1.4,-1.61,1770370104.945838
-0.232776,-0.018788,1.01016,0.35,-1.61,-0.35,1770370104.953965
-0.230824,-0.018788,1.006012,-0.35,-1.19,-3.71,1770370104.961911
-0.22814,-0.020008,1.003572,3.99,-2.73,-2.8,1770370104.969849
-0.2257,-0.020496,1.002352,-0.14,-0.98,-1.96,1770370104.977845
-0.224968,-0.025376,1.004548,0.56,-0.63,-2.24,1770370104.98587
-0.225944,-0.02684,1.006744,0.35,0.28,-3.43,1770370104.993957
-0.226432,-0.034404,1.007232,-1.75,0.35,-2.38,1770370105.001841
-0.229604,-0.037088,1.006012,1.89,-0.28,0.07,1770370105.009852
-0.227896,-0.041968,0.999912,-0.14,-0.28,-2.73,1770370105.017852
-0.23302,-0.038552,0.999424,-3.01,-0.49,-0.21,1770370105.025844
-0.232776,-0.035136,0.998692,-1.47,-1.05,-3.64,1770370105.033951
-0.232288,-0.037332,1.002352,-1.54,0.28,-1.47,1770370105.041843
-0.231312,-0.036844,1.00406,-0.14,-0.98,-4.55,1770370105.049857
-0.232288,-0.036112,1.003084,-0.56,-2.17,-3.01,1770370105.057864
-0.231068,-0.037332,1.00284,-1.54,-1.54,-1.19,1770370105.06594
-0.232044,-0.043432,1.005524,0.21,-1.19,-1.75,1770370105.074669
-0.230336,-0.044408,1.0065,-0.56,-2.59,-0.49,1770370105.081872
-0.230092,-0.04636,1.003084,1.19,-1.12,-1.82,1770370105.089855
-0.234728,-0.044652,1.001132,0.56,-0.63,-1.96,1770370105.097891
-0.233264,-0.043188,1.006256,1.54,-0.91,0.91,1770370105.105853
-0.234484,-0.04026,1.00406,0.77,0.63,-2.38,1770370105.113859
-0.2379,-0.037332,1.004548,0.42,-0.63,-0.35,1770370105.121925
-0.235216,-0.04148,1.000888,-0.91,-0.63,-2.24,1770370105.130002
-0.240828,-0.040504,1.007232,-1.19,-0.07,0.0,1770370105.137877
-0.239608,-0.038552,1.012112,-0.98,-0.49,-2.24,1770370105.145847
-0.241072,-0.030988,1.01016,-2.24,0.35,-1.33,1770370105.153846
-0.243512,-0.029524,1.01138,-0.56,-1.4,2.52,1770370105.161838
-0.243268,-0.022204,1.01016,-0.14,-1.4,-3.43,1770370105.169867
-0.243756,-0.022204,1.006744,-0.35,-3.5,1.75,1770370105.177838
-0.245464,-0.021472,1.00528,-0.7,-2.73,-0.91,1770370105.185863
-0.239852,-0.01708,0.999668,-0.14,-4.13,2.59,1770370105.193856
-0.232776,-0.016348,0.99552,-2.66,-3.36,1.19,1770370105.201927
-0.225212,-0.021228,0.99186,2.1,-3.71,0.42,1770370105.20987
-0.224968,-0.013664,0.996496,0.35,-4.06,2.03,1770370105.217848
-0.2196,-0.0122,0.99308,-2.24,-3.85,0.56,1770370105.225839
-0.22326,-0.012932,0.996252,-0.91,-3.08,3.64,1770370105.233847
-0.221796,-0.014152,1.0004,-2.31,-1.54,1.75,1770370105.242053
-0.223016,-0.01464,1.00894,-0.21,-0.63,0.28,1770370105.249843
-0.229116,-0.018788,1.009672,-1.4,1.4,3.71,1770370105.25784
-0.231312,-0.023668,1.009184,-1.89,1.89,3.01,1770370105.265834
-0.235216,-0.026596,1.00772,0.21,0.7,3.36,1770370105.273841
-0.241072,-0.03172,1.001376,-2.45,1.26,4.76,1770370105.281924
-0.240096,-0.03538,1.00528,0.7,-0.63,1.75,1770370105.289843
-0.23912,-0.038308,1.006256,-0.77,-2.31,3.92,1770370105.297833
-0.238632,-0.038308,1.008696,0.21,-2.1,4.34,1770370105.30582
-0.233752,-0.0366,1.0065,0.56,-1.26,4.48,1770370105.313872
-0.230336,-0.036112,1.008208,-2.8,-0.7,3.01,1770370105.321957
-0.224968,-0.033428,1.007964,0.21,-2.03,2.66,1770370105.32987
-0.222284,-0.034892,1.005524,-2.03,-0.14,6.16,1770370105.337837
-0.219112,-0.03538,1.005524,-2.52,0.84,3.36,1770370105.345841
-0.219112,-0.034892,1.006012,-2.52,-0.28,3.22,1770370105.353851
-0.219844,-0.035136,1.006012,-2.8,1.4,3.15,1770370105.361949
-0.2196,-0.035136,1.01138,-1.68,1.68,1.89,1770370105.369835
-0.2196,-0.032452,1.016992,-1.54,0.7,4.48,1770370105.37792
-0.221552,-0.0305,1.022116,-1.89,1.05,2.24,1770370105.38585
-0.22326,-0.027328,1.026752,0.35,-0.07,3.36,1770370105.39388
-0.224968,-0.028304,1.02846,-3.22,-0.7,-0.35,1770370105.401846
-0.226188,-0.026108,1.027972,0.0,-0.91,-0.7,1770370105.409847
-0.224968,-0.022204,1.023092,-2.66,-0.77,-1.61,1770370105.417856
-0.224236,-0.020984,1.018212,-3.15,1.4,2.45,1770370105.425848
-0.224968,-0.020252,1.009916,-0.98,0.84,-3.64,1770370105.433897
-0.224236,-0.01952,0.996496,-4.34,-0.42,1.47,1770370105.441978
-0.221552,-0.020008,0.98698,-0.98,-0.84,-5.32,1770370105.449854
-0.216916,-0.022448,0.988932,-1.54,-1.82,-0.63,1770370105.457881
-0.216916,-0.025376,0.993568,-2.8,-2.73,-3.71,1770370105.46585
-0.215696,-0.027816,0.999912,-1.89,-3.57,-0.91,1770370105.473844
-0.215696,-0.033184,1.000644,-2.31,-2.24,-3.5,1770370105.481847
-0.217404,-0.033184,1.000644,-1.12,-2.17,-1.96,1770370105.489843
-0.222772,-0.033184,1.002108,-0.42,-0.35,-3.5,1770370105.4979
-0.224968,-0.036356,1.001864,1.19,-1.75,0.77,1770370105.505878
-0.229604,-0.038796,1.006988,1.05,1.05,-1.05,1770370105.513856
-0.236924,-0.036112,1.011624,0.56,0.84,1.47,1770370105.521889
-0.242048,-0.034648,1.009916,3.36,1.75,1.89,1770370105.529848
-0.247904,-0.028304,1.015528,3.08,-0.07,3.71,1770370105.537938
-0.252052,-0.023912,1.020896,-0.91,-0.77,1.68,1770370105.54584
-0.252052,-0.022692,1.02358,1.47,-2.52,2.8,1770370105.553853
-0.256932,-0.0244,1.020652,-2.1,-2.73,1.89,1770370105.561862
-0.253516,-0.022936,1.021384,1.54,-4.2,-0.63,1770370105.569926
-0.252052,-0.02684,1.017724,-0.77,-5.04,4.69,1770370105.577842
-0.24522,-0.026596,1.013332,-0.49,-5.04,-0.7,1770370105.585913
-0.2379,-0.028548,1.00772,0.63,-7.84,4.13,1770370105.593844
-0.233752,-0.02562,0.999668,-1.89,-6.72,0.07,1770370105.60185
-0.220088,-0.02196,0.994788,1.54,-6.86,0.56,1770370105.60989
-0.213988,-0.029036,0.99918,-2.17,-6.37,1.33,1770370105.617877
-0.204472,-0.02684,1.0004,0.77,-6.3,-2.31,1770370105.625822
-0.200324,-0.032696,1.00772,1.54,-5.6,0.77,1770370105.633849
-0.19276,-0.03416,1.01016,-1.33,-4.41,-0.35,1770370105.641857
-0.19032,-0.032208,1.019432,2.24,-3.36,1.19,1770370105.649855
-0.193004,-0.03782,1.0187,0.56,-3.71,0.63,1770370105.657972
-0.197396,-0.036356,1.014064,-2.45,-1.19,-1.75,1770370105.665847
-0.201544,-0.038796,1.01016,1.4,-2.03,-0.14,1770370105.673847
-0.200568,-0.035868,1.007232,-0.56,-0.84,-2.38,1770370105.682052
-0.203252,-0.036356,1.004304,2.31,-1.19,-2.94,1770370105.689852
-0.209596,-0.03538,1.00284,-0.07,-0.7,-0.14,1770370105.697845
-0.211304,-0.032452,1.004792,-0.91,-0.49,-2.38,1770370105.705853
-0.211792,-0.030988,1.0065,1.19,-0.07,0.21,1770370105.713846
-0.218624,-0.02928,1.006256,-0.56,-0.7,-2.94,1770370105.722021
-0.219844,-0.031232,1.00406,2.24,-1.61,-4.06,1770370105.729839
-0.221796,-0.034404,1.002596,0.0,-1.82,-2.73,1770370105.737838
-0.221796,-0.02806,1.002108,1.96,-1.19,-2.59,1770370105.745851
-0.223016,-0.028548,0.998204,2.1,-1.12,-1.61,1770370105.753883
-0.224236,-0.026108,1.000644,-0.21,-0.84,-3.57,1770370105.7619
-0.222772,-0.022692,1.000888,3.99,-2.73,-5.39,1770370105.769845
-0.218624,-0.022448,1.002108,2.24,-2.31,-5.39,1770370105.777853
-0.218868,-0.023424,0.996008,0.77,-2.59,-5.39,1770370105.785842
-0.217404,-0.026596,0.993568,1.19,-3.5,-2.73,1770370105.793839
-0.21228,-0.025864,0.992836,0.56,-3.64,-6.23,1770370105.801849
-0.20618,-0.026108,0.989176,3.57,-3.71,-6.44,1770370105.809828
-0.201788,-0.027084,0.99308,1.68,-3.36,-3.71,1770370105.817842
-0.197152,-0.025132,1.003328,3.22,-3.29,-7.0,1770370105.825845
-0.19886,-0.025864,1.012356,4.13,-2.59,-4.83,1770370105.833854
-0.197884,-0.027572,1.01504,2.66,-1.19,-3.5,1770370105.842136
-0.199104,-0.03172,1.020652,5.11,-0.98,-1.33,1770370105.849852
-0.203008,-0.033916,1.022848,4.41,0.42,-7.98,1770370105.857899
-0.208132,-0.030256,1.02846,4.41,0.77,-4.2,1770370105.865885
-0.209352,-0.022204,1.026752,4.34,1.26,-0.7,1770370105.873836
-0.212768,-0.018056,1.029924,2.52,1.82,-3.71,1770370105.881849
-0.21472,-0.02074,1.026508,2.66,0.7,-3.71,1770370105.889843
-0.219112,-0.01952,1.017236,2.45,0.98,-3.64,1770370105.897887
-0.224236,-0.022936,1.014308,-0.56,-0.14,-5.04,1770370105.905842
-0.2257,-0.03172,1.011136,2.52,-0.98,-4.13,1770370105.913847
-0.225212,-0.034404,1.010404,-0.77,-1.61,-3.29,1770370105.921878
-0.22204,-0.039772,1.008452,1.12,-2.94,-7.21,1770370105.930005
-0.22448,-0.041236,1.003816,-0.14,-4.06,-5.25,1770370105.937967
-0.22204,-0.038552,1.004304,-0.21,-3.5,-4.55,1770370105.945849
-0.21594,-0.037576,1.003084,1.68,-3.15,-5.6,1770370105.953848
-0.215696,-0.033184,1.000156,-1.12,-2.59,-4.9,1770370105.96199
-0.210816,-0.03172,1.002108,3.22,-4.69,-6.86,1770370105.969846
-0.211792,-0.025132,0.99796,1.33,-3.85,-5.74,1770370105.977848
-0.2074,-0.02196,1.000156,-0.14,-3.29,-5.88,1770370105.985894
-0.210572,-0.017812,1.002108,1.75,-2.94,-2.94,1770370105.993844
-0.209596,-0.011956,1.010404,0.14,-1.26,-6.09,1770370106.001861
-0.213256,-0.008296,1.012112,2.31,-1.61,-6.09,1770370106.009846
-0.21472,-0.006588,1.014064,0.21,-2.1,-4.97,1770370106.017851
-0.215208,-0.010736,1.018944,0.98,-2.94,-4.2,1770370106.025862
-0.215452,-0.01342,1.015528,1.89,-3.15,-3.85,1770370106.033858
-0.212768,-0.018788,1.009916,-1.19,-3.08,-5.32,1770370106.04187
-0.20862,-0.020984,1.009428,2.8,-3.5,-6.02,1770370106.049851
-0.207156,-0.020984,1.013088,0.21,-3.29,-4.06,1770370106.058545
-0.203984,-0.02074,1.013332,1.54,-3.43,-2.87,1770370106.066019
-0.201056,-0.021716,1.018944,1.96,-3.36,-3.01,1770370106.073978
-0.20008,-0.020252,1.016504,-1.47,-2.52,-2.94,1770370106.081909
-0.20008,-0.023912,1.0187,2.66,-1.61,-3.71,1770370106.089853
-0.203496,-0.02196,1.01992,0.0,0.63,-3.85,1770370106.097882
-0.205692,-0.024644,1.019676,-0.56,0.63,-2.73,1770370106.105862
-0.205936,-0.027084,1.018212,-0.21,0.21,0.07,1770370106.113851
-0.2074,-0.026596,1.01748,-0.7,1.19,-2.38,1770370106.121843
-0.206912,-0.028792,1.015284,0.7,0.84,-4.27,1770370106.129885
-0.212524,-0.0305,1.016504,0.77,-0.14,-2.45,1770370106.137871
-0.212036,-0.03172,1.01504,-0.21,-0.28,-2.94,1770370106.145843
-0.212036,-0.0305,1.011624,0.98,1.19,-1.61,1770370106.153852
-0.212768,-0.028304,1.009916,-0.42,-0.14,-1.61,1770370106.161839
-0.215452,-0.0305,1.011624,0.56,-0.07,-5.6,1770370106.169838
-0.215452,-0.027572,1.005768,-0.35,-1.26,-3.64,1770370106.17789
-0.212524,-0.02684,1.002596,-0.35,-1.19,-5.74,1770370106.185896
-0.210328,-0.025376,1.00406,-0.42,-1.96,-2.87,1770370106.193852
-0.20374,-0.021716,1.008208,1.33,-0.84,-5.67,1770370106.201846
-0.201544,-0.019276,1.009184,-1.54,-1.26,-6.86,1770370106.20985
-0.195444,-0.01708,1.01138,0.07,-2.1,-8.33,1770370106.217847
-0.190076,-0.01464,1.012356,-0.7,0.28,-6.16,1770370106.225853
-0.187148,-0.016592,1.010892,-1.47,-0.42,-6.86,1770370106.234004
-0.185196,-0.021472,1.009916,-2.1,0.63,-5.53,1770370106.241872
-0.188124,-0.025864,1.009916,1.75,1.19,-8.68,1770370106.249987
-0.18422,-0.024888,1.009916,1.54,1.96,-5.18,1770370106.257842
-0.187636,-0.023912,1.010648,1.12,3.64,-7.0,1770370106.265842
-0.194224,-0.023668,1.015284,2.8,4.41,-5.67,1770370106.273843
-0.201056,-0.024888,1.020408,-1.12,4.97,-4.76,1770370106.281841
-0.209352,-0.027328,1.019676,4.34,4.27,-8.12,1770370106.289841
-0.222528,-0.028304,1.022848,0.91,5.25,-5.6,1770370106.297935
-0.233752,-0.03172,1.023092,1.54,5.18,-7.0,1770370106.305845
-0.238144,-0.028792,1.017968,2.31,3.15,-3.57,1770370106.313837
-0.245708,-0.029524,1.010648,-0.21,2.17,-7.0,1770370106.321826
-0.246928,-0.02928,1.009428,1.89,-0.77,-6.23,1770370106.329855
-0.242536,-0.029036,1.009184,0.42,-2.17,-3.29,1770370106.337849
-0.2379,-0.032696,1.005524,1.54,-4.48,-5.88,1770370106.345927
-0.229116,-0.036112,1.002352,1.33,-4.06,-4.62,1770370106.353869
-0.226676,-0.041968,0.99918,1.89,-5.46,-5.74,1770370106.361837
-0.220576,-0.045872,0.986736,1.54,-6.72,-4.76,1770370106.369849
-0.214232,-0.054412,0.980392,3.01,-7.49,-7.42,1770370106.377837
-0.209108,-0.060024,0.982832,3.43,-5.25,-5.18,1770370106.385848
-0.208132,-0.056364,0.984784,5.67,-3.29,-5.53,1770370106.393851
-0.20618,-0.05368,0.992592,3.01,-1.61,-7.42,1770370106.401846
-0.203984,-0.05002,1.01138,6.65,-2.31,-5.95,1770370106.409874
-0.208864,-0.042212,1.031632,6.23,-0.98,-5.67,1770370106.417859
-0.213988,-0.020984,1.037244,5.81,-0.7,-4.9,1770370106.425858
-0.216672,-0.003904,1.037488,5.04,-1.75,-7.84,1770370106.434085
-0.214476,0.010248,1.039196,1.54,-3.15,-5.74,1770370106.44185
-0.214232,0.016104,1.027972,3.43,-3.71,-9.03,1770370106.449909
-0.206912,0.015372,1.0187,-0.42,-5.74,-9.24,1770370106.457854
-0.197884,0.005368,1.017968,-1.54,-3.5,-7.0,1770370106.465844
-0.190808,-0.001708,1.021872,0.35,-4.06,-8.47,1770370106.473847
-0.187148,-0.011712,1.033096,-2.31,-2.87,-5.53,1770370106.481907
-0.187148,-0.014884,1.038464,0.91,-1.05,-5.74,1770370106.489848
-0.193492,-0.010248,1.04066,2.87,1.61,-5.74,1770370106.497846
-0.202032,-0.007076,1.042856,0.77,3.29,-5.39,1770370106.505871
-0.210084,-0.000488,1.040416,2.87,3.71,-3.43,1770370106.513848
-0.217648,0.002928,1.040416,-0.42,4.55,-3.71,1770370106.521928
-0.224968,0.007564,1.033584,1.54,4.48,-7.35,1770370106.529851
-0.232532,0.01464,1.02358,1.47,2.94,-5.53,1770370106.537846
-0.2379,0.0183,1.013088,-0.56,2.73,-5.53,1770370106.545947
-0.236924,0.020984,1.0004,1.33,0.84,-3.99,1770370106.553882
-0.239364,0.015616,0.999668,-0.77,0.35,-3.99,1770370106.561847
-0.239608,0.015372,1.002352,3.08,-2.17,-5.88,1770370106.569832
-0.231556,0.0122,0.999668,1.4,-2.73,-6.3,1770370106.577836
-0.228628,0.007076,0.988932,1.89,-2.66,-3.5,1770370106.585837
-0.224968,-0.002684,0.987224,4.13,-2.52,-5.39,1770370106.593855
-0.218136,-0.011956,0.98576,2.87,-2.59,-2.8,1770370106.601986
-0.215696,-0.022448,0.991372,5.39,-2.31,-3.64,1770370106.609857
-0.21472,-0.032452,0.995276,4.76,-1.26,-4.83,1770370106.617843
-0.210084,-0.041968,0.99674,2.87,0.49,-2.52,1770370106.625861
-0.21472,-0.053436,1.000156,6.02,1.82,-3.64,1770370106.633871
-0.214964,-0.059292,0.996496,4.48,2.17,-4.62,1770370106.64185
-0.217892,-0.066124,0.995276,4.97,2.52,-5.74,1770370106.649867
-0.217892,-0.067344,0.990884,4.2,2.03,-9.8,1770370106.657846
-0.212768,-0.071492,0.990884,3.99,0.91,-4.83,1770370106.665844
-0.204716,-0.075152,0.994056,6.02,0.28,-9.1,1770370106.673842
-0.195688,-0.081496,0.995276,4.55,0.49,-7.84,1770370106.681954
-0.193248,-0.084424,0.993324,7.56,-0.7,-9.45,1770370106.689862
-0.188612,-0.086376,0.99064,5.74,-0.28,-9.31,1770370106.697878
-0.18422,-0.084912,0.987712,7.42,0.7,-6.44,1770370106.706005
-0.182024,-0.087596,0.989176,6.65,2.66,-5.88,1770370106.713845
-0.18788,-0.084668,0.993568,6.44,3.29,-10.36,1770370106.721846
-0.189832,-0.081496,1.000156,9.52,3.15,-5.18,1770370106.729839
-0.196176,-0.074176,1.007964,6.79,3.01,-7.63,1770370106.737864
-0.200568,-0.067344,1.011868,6.58,5.18,-6.86,1770370106.746014
-0.20496,-0.057584,1.007964,4.41,5.18,-2.8,1770370106.753854
-0.213988,-0.050508,0.99918,4.2,5.81,-6.09,1770370106.761848
-0.218136,-0.039284,0.99186,5.32,6.09,-7.07,1770370106.769842
-0.225944,-0.03416,0.998204,2.31,6.72,-6.3,1770370106.777843
-0.23058,-0.021472,1.002108,4.55,5.95,-6.3,1770370106.78593
-0.233508,-0.0183,1.009916,4.69,6.51,-5.39,1770370106.793872
-0.23912,-0.012444,1.01016,1.89,5.95,-8.54,1770370106.801844
-0.23912,-0.00732,1.006744,5.53,5.81,-5.39,1770370106.809839
-0.235704,-0.005124,0.990396,2.66,4.2,-13.02,1770370106.817843
-0.2379,-0.010248,0.982588,3.64,2.38,-8.33,1770370106.825886
-0.233996,-0.010492,0.979904,5.81,1.82,-7.7,1770370106.833849
-0.233508,-0.0061,0.975024,3.78,0.14,-10.01,1770370106.841858
-0.231312,-0.006588,0.981368,6.86,-2.1,-9.94,1770370106.849869
-0.22692,-0.007564,0.975268,7.21,-3.15,-11.83,1770370106.857851
-0.221064,-0.00732,0.977708,3.92,-2.38,-11.76,1770370106.865843
-0.212768,-0.001708,0.993568,8.33,-1.96,-11.41,1770370106.873844
-0.206424,0.004392,1.003816,7.42,1.68,-11.83,1770370106.881975
-0.20618,0.016104,1.017968,8.75,1.82,-12.81,1770370106.889847
-0.209108,0.026108,1.020652,7.63,2.38,-11.69,1770370106.897848
-0.212524,0.027816,1.023092,7.21,4.27,-12.39,1770370106.905844
-0.219844,0.034404,1.02236,9.03,5.18,-12.04,1770370106.913833
-0.22448,0.035868,1.0248,5.11,5.74,-11.97,1770370106.921958
-0.23546,0.038308,1.024312,7.42,6.72,-11.34,1770370106.929858
-0.240096,0.036356,1.034316,4.41,5.46,-12.81,1770370106.93791
-0.249612,0.031964,1.039196,4.97,4.62,-7.77,1770370106.9461
-0.25254,0.029036,1.038952,1.89,5.32,-6.44,1770370106.95385
-0.254248,0.026108,1.037976,1.89,1.96,-6.86,1770370106.962404
-0.253272,0.02074,1.031632,1.33,1.75,-10.5,1770370106.969912
-0.25376,0.010736,1.030656,0.42,1.4,-4.97,1770370106.977844
-0.249612,0.00122,1.024556,-0.63,1.4,-7.56,1770370106.985831
-0.250344,-0.003904,1.018212,2.66,0.63,-5.04,1770370106.993835
-0.249612,-0.009272,1.007964,-0.14,0.42,-0.14,1770370107.001854
-0.251076,-0.014884,0.99308,3.57,0.07,-4.69,1770370107.009847
-0.254004,-0.018788,0.984784,1.54,-1.26,-0.56,1770370107.017848
-0.2501,-0.019276,0.983564,0.35,-0.28,0.63,1770370107.025854
-0.249368,-0.025132,0.980148,2.45,0.28,2.1,1770370107.03386
-0.247904,-0.028792,0.984784,-0.21,1.33,2.94,1770370107.041912
-0.242536,-0.035136,0.99064,3.92,1.61,4.48,1770370107.049856
-0.244976,-0.032696,0.9943,0.98,2.52,3.92,1770370107.057869
-0.249612,-0.03172,0.998204,3.01,4.06,4.13,1770370107.065942
-0.250832,-0.031232,0.998448,1.33,3.92,2.73,1770370107.074001
-0.252784,-0.030012,0.995032,0.21,3.85,6.37,1770370107.081871
-0.25132,-0.02684,0.9943,1.47,3.92,3.57,1770370107.089855
-0.254004,-0.023912,1.000888,0.42,2.73,6.3,1770370107.097876
-0.257664,-0.019032,1.002108,-0.21,4.34,4.97,1770370107.105901
-0.258884,-0.01586,1.004304,0.98,4.27,6.16,1770370107.113875
-0.262544,-0.008052,1.011136,-0.63,4.83,7.42,1770370107.121847
-0.2623,-0.00244,1.011136,1.75,5.46,3.01,1770370107.129857
-0.266448,0.003904,1.008696,-1.68,5.18,4.97,1770370107.137935
-0.270596,0.002684,1.0004,-0.98,5.18,-1.12,1770370107.145862
-0.269864,0.005368,0.98942,-1.33,4.69,4.34,1770370107.15385
-0.271816,0.003416,0.986492,-2.45,4.48,-0.21,1770370107.161839
-0.27328,0.003172,0.9882,-0.63,3.92,0.28,1770370107.169889
-0.274012,0.00366,0.991616,-1.89,2.31,-2.03,1770370107.177844
-0.270352,0.003904,0.992104,-3.71,1.96,-1.61,1770370107.185845
-0.266204,0.001952,0.998692,-1.47,1.19,-1.96,1770370107.193848
-0.261568,-0.001708,0.997228,-2.38,0.07,-2.87,1770370107.201904
-0.260104,-0.003904,0.997716,-0.91,0.49,-3.15,1770370107.209837
-0.256688,-0.008296,0.994544,-1.68,-1.4,-0.91,1770370107.217842
-0.2501,-0.007808,0.993812,-0.07,-0.49,-2.52,1770370107.225835
-0.246928,-0.007076,0.996984,-0.14,0.21,0.77,1770370107.233864
-0.243268,-0.000976,0.99552,-1.47,0.28,-0.28,1770370107.241982
-0.243268,0.002684,0.992348,0.42,1.47,-1.61,1770370107.249863
-0.241072,0.00366,0.99186,0.21,2.52,1.68,1770370107.257844
-0.241316,0.000488,0.998204,-1.33,1.54,-0.91,1770370107.266044
-0.240828,-0.001708,1.008208,-0.56,2.87,3.01,1770370107.273839
-0.24522,-0.005124,1.006744,-3.01,2.59,0.77,1770370107.281838
-0.248636,-0.003172,1.010404,-1.47,2.94,-0.84,1770370107.289868
-0.25254,-0.007076,1.016504,-1.68,3.5,3.43,1770370107.297852
-0.257908,-0.006832,1.017236,-1.75,3.29,0.28,1770370107.305836
-0.258396,-0.007564,1.016992,-1.54,2.94,3.5,1770370107.313842
-0.263276,-0.002928,1.013332,-3.22,2.94,3.36,1770370107.321838
-0.269864,-0.000244,1.01016,-1.82,3.5,-0.35,1770370107.329869
-0.270108,0.002196,1.006988,-2.66,2.17,5.6,1770370107.337856
-0.268644,0.004636,1.001132,-2.45,1.05,1.54,1770370107.345852
-0.267912,0.002928,0.996008,-2.45,1.05,5.46,1770370107.353856
-0.26352,0.00488,0.99552,-3.01,0.49,2.8,1770370107.361844
-0.261324,0.00366,0.996984,-0.91,0.42,5.18,1770370107.370248
-0.26108,0.005368,0.998448,-1.75,-0.49,0.84,1770370107.377946
-0.263276,0.005124,0.994544,-3.43,-0.07,0.91,1770370107.385878
-0.260348,0.005124,0.992836,-0.91,-0.77,3.99,1770370107.393852
-0.259372,0.00488,0.989908,-2.8,-0.91,1.12,1770370107.40185
-0.258884,-0.000488,0.990396,-0.98,-0.7,4.69,1770370107.409847
-0.259372,0.000244,0.990884,0.56,-0.49,0.35,1770370107.417873
-0.25742,0.000976,0.998448,-0.91,-0.7,3.43,1770370107.425842
-0.256688,0.000488,1.002596,0.56,-0.63,1.68,1770370107.433848
-0.255712,0.001708,1.007964,-0.21,-1.61,2.66,1770370107.441852
-0.255224,0.005124,1.007964,2.1,-0.63,0.56,1770370107.449855
-0.2562,0.0061,1.005524,0.35,-0.7,1.54,1770370107.457867
-0.254736,0.004148,1.003572,-0.77,-1.54,0.84,1770370107.465942
-0.25376,0.001952,0.998936,-1.12,-1.75,1.89,1770370107.473852
-0.25376,-0.00244,0.996984,-0.56,-0.28,0.63,1770370107.481839
-0.250588,-0.005856,0.996008,-0.21,-1.54,2.52,1770370107.489859
-0.249856,-0.009516,1.000156,0.0,-1.75,2.87,1770370107.497852
-0.248392,-0.009516,1.001376,-1.12,-1.61,-1.4,1770370107.505847
-0.249124,-0.00976,0.996984,0.21,-1.75,4.13,1770370107.513892
-0.250344,-0.010248,0.9943,-2.1,-0.7,2.45,1770370107.521853
-0.253516,-0.01098,0.99552,0.7,-1.4,0.77,1770370107.52988
-0.25254,-0.011224,0.999668,1.26,-1.05,-0.35,1770370107.537928
-0.253028,-0.010736,0.99674,-0.56,-1.82,0.77,1770370107.54585
-0.2501,-0.010492,0.996496,0.42,-1.47,0.56,1770370107.553853
-0.251076,-0.010004,0.994056,-0.7,-1.75,1.54,1770370107.561886
-0.247172,-0.011712,0.99552,2.03,-1.4,1.19,1770370107.569872
-0.243756,-0.011712,0.994788,0.77,-2.38,2.03,1770370107.577932
-0.247416,-0.010004,0.994056,-3.92,-2.73,0.0,1770370107.585841
-0.245708,-0.007076,0.994544,1.4,-0.49,1.75,1770370107.593851
-0.246196,-0.007808,0.993324,-1.68,-1.26,0.63,1770370107.601956
-0.249612,-0.00488,0.996984,0.07,0.07,0.21,1770370107.609847
-0.250344,-0.003416,1.005768,1.19,0.49,1.05,1770370107.617847
-0.253516,-0.000732,1.00772,-1.68,0.28,1.75,1770370107.625832
-0.256688,-0.005368,1.002108,0.56,0.21,1.47,1770370107.633851
-0.25864,-0.00122,1.001132,-1.54,1.61,1.4,1770370107.641947
-0.257664,-0.002196,1.003084,2.59,-0.07,-1.61,1770370107.649853
-0.257664,-0.002196,1.00284,0.56,0.49,-2.03,1770370107.657853
-0.253272,-0.001464,1.003572,1.47,-0.42,1.68,1770370107.665925
-0.252052,-0.004392,0.997716,0.7,0.49,-2.38,1770370107.673853
-0.251076,-0.010004,0.995764,0.77,-1.61,-0.56,1770370107.681852
-0.253272,-0.012688,0.997228,0.84,-0.84,0.0,1770370107.689927
-0.250344,-0.01464,0.998204,0.21,-1.54,-1.26,1770370107.69786
-0.253028,-0.016592,0.998692,-0.14,-0.14,0.77,1770370107.705846
-0.254736,-0.01464,1.003572,0.0,0.49,-1.12,1770370107.713852
-0.255956,-0.01708,1.00528,1.33,0.07,-0.35,1770370107.721937
-0.260836,-0.015372,1.00894,0.35,1.19,-2.59,1770370107.729881
-0.259128,-0.010248,1.009428,0.98,-0.21,2.24,1770370107.737857
-0.260348,-0.010492,1.003572,-0.14,-0.07,-3.15,1770370107.745844
-0.260836,-0.007808,1.002596,1.33,-1.61,0.91,1770370107.753848
-0.258396,-0.002928,0.997716,0.21,-0.98,-0.35,1770370107.76187
-0.260836,-0.002196,0.997716,2.1,-2.24,-0.84,1770370107.769858
-0.259372,0.00122,1.000888,1.75,-0.28,-1.96,1770370107.777895
-0.258884,0.005856,1.001376,0.35,0.07,-1.4,1770370107.78587
-0.25864,0.006344,1.003816,0.98,0.42,1.54,1770370107.793849
-0.258396,0.003416,1.00162,-2.1,0.07,-0.28,1770370107.801847
-0.259128,0.000244,1.000156,2.03,-1.12,-0.49,1770370107.809847
-0.261568,-0.00244,0.993324,-0.14,-1.05,-0.35,1770370107.8179
-0.255712,-0.010004,0.99064,-1.96,-1.61,-1.82,1770370107.825855
-0.2562,-0.010736,0.989664,3.01,-2.1,0.84,1770370107.833831
-0.254248,-0.00976,0.9882,-1.33,-0.84,-1.05,1770370107.841854
-0.251808,-0.00488,0.991616,2.03,-0.7,-2.38,1770370107.849837
-0.252784,-0.00488,0.9882,0.21,-1.26,-3.15,1770370107.857836
-0.251564,-0.0061,0.992348,1.54,-0.07,-0.84,1770370107.866181
-0.256688,-0.003904,0.996252,1.26,-0.07,-3.5,1770370107.873849
-0.2562,-0.002684,0.996008,-0.63,0.7,-1.61,1770370107.881853
-0.258396,-0.005368,0.998204,1.12,0.07,-0.35,1770370107.88985
-0.26108,-0.006588,0.994788,0.56,0.49,-3.64,1770370107.897878
-0.258152,-0.006344,0.994544,0.14,-0.7,-2.52,1770370107.905966
-0.256444,-0.009272,0.993812,-0.42,-0.07,-0.56,1770370107.913851
-0.252052,-0.009272,0.99552,-0.98,-0.07,-3.08,1770370107.921895
-0.253516,-0.010736,0.995032,1.12,0.07,-4.41,1770370107.930013
-0.24888,-0.012932,0.997472,-0.07,1.19,-3.36,1770370107.937889
-0.25132,-0.019032,0.999668,-2.45,1.47,-4.2,1770370107.945847
-0.247416,-0.0244,1.0004,1.68,1.82,-3.29,1770370107.953885
-0.247416,-0.02684,1.001132,-0.14,2.38,-2.45,1770370107.961857
-0.245952,-0.024644,1.003084,3.08,2.87,-4.13,1770370107.969862
-0.252296,-0.019276,1.010892,2.59,4.41,-3.15,1770370107.977855
-0.254736,-0.01464,1.015772,0.77,4.69,-3.5,1770370107.985845
-0.261324,-0.014152,1.020164,2.59,4.41,-2.94,1770370107.993848
-0.267424,-0.013908,1.014796,-0.77,4.06,-2.94,1770370108.001849
-0.274988,-0.017812,1.003084,2.31,3.5,-2.8,1770370108.009886
-0.279136,-0.01952,0.994544,1.47,1.47,-3.71,1770370108.017855
-0.281332,-0.019764,0.988932,-0.77,1.61,-4.27,1770370108.025846
-0.278892,-0.015128,0.985516,0.0,0.49,-2.38,1770370108.033834
-0.274988,-0.012932,0.978196,-1.47,0.49,-4.41,1770370108.041865
-0.269132,-0.010492,0.980392,1.12,0.98,-6.16,1770370108.04987
-0.267912,-0.005856,0.98332,0.42,0.7,-4.41,1770370108.058655
-0.26474,-0.004636,0.980636,2.03,-0.63,-1.96,1770370108.066181
-0.261568,0.001708,0.98332,-2.8,0.42,-2.73,1770370108.074256
-0.2562,0.004636,0.985272,-1.82,-0.14,-1.61,1770370108.081875
-0.256444,0.008052,0.992592,1.47,2.31,-4.2,1770370108.089854
-0.25986,0.01098,0.993812,0.42,2.66,-2.45,1770370108.097888
-0.262544,0.00976,0.988932,0.56,2.94,-5.74,1770370108.105856
-0.267912,0.006832,0.989176,0.77,3.71,0.07,1770370108.11385
-0.27328,0.005612,0.984784,-0.98,4.69,-4.83,1770370108.121843
-0.27816,0.001952,0.988444,2.45,4.41,-2.73,1770370108.129856
-0.281332,-0.00244,0.984296,1.47,2.94,-5.95,1770370108.137946
-0.279868,-0.004636,0.988444,0.35,3.43,-3.5,1770370108.145854
-0.285968,-0.008784,0.995764,2.66,2.03,-0.7,1770370108.15385
-0.285724,-0.00732,1.001132,1.89,1.96,-4.62,1770370108.161839
-0.282308,-0.00976,1.003816,0.56,1.19,-6.65,1770370108.169969
-0.281332,-0.011468,1.00772,1.47,-0.14,-4.97,1770370108.177841
-0.279868,-0.010736,1.007232,0.63,-0.28,-2.38,1770370108.185848
-0.281576,-0.014396,1.009184,1.68,-0.42,-4.62,1770370108.193845
-0.277428,-0.017812,1.006744,-1.89,0.49,-2.94,1770370108.201868
-0.278892,-0.019032,1.003328,2.66,0.28,-5.04,1770370108.20985
-0.27816,-0.019276,0.999424,-0.14,-1.4,-4.06,1770370108.217929
-0.277428,-0.019276,1.001864,-3.08,-2.1,-6.09,1770370108.22584
-0.272792,-0.018788,1.002352,-0.35,-2.73,-1.05,1770370108.233839
-0.273768,-0.01952,1.003816,-1.33,-0.07,-6.58,1770370108.241854
-0.269132,-0.017568,1.004304,0.98,-1.26,-2.52,1770370108.249839
-0.268888,-0.0183,1.004548,0.21,-1.61,-4.06,1770370108.257829
-0.266204,-0.016836,1.006988,0.0,-2.59,-2.59,1770370108.265829
-0.264252,-0.012444,1.013088,0.98,-1.4,-1.96,1770370108.273864
-0.267912,-0.00854,1.015284,-1.89,-0.49,-3.15,1770370108.281845
-0.27084,-0.001952,1.008452,2.03,-1.19,-4.06,1770370108.289843
-0.274744,0.001464,0.997716,-1.33,-0.84,-2.52,1770370108.29789
-0.279624,0.002928,0.98942,-0.7,-0.63,-2.03,1770370108.305845
-0.277184,0.005368,0.983076,-0.56,-1.54,-2.38,1770370108.313842
-0.26962,0.004392,0.97844,-3.22,-1.26,-2.45,1770370108.32184
-0.26596,0.003416,0.97478,0.0,-2.17,-1.89,1770370108.329869
-0.261324,-0.001952,0.97478,-2.03,-2.73,-0.14,1770370108.337857
-0.258884,-0.00244,0.977708,-2.31,-1.61,-0.35,1770370108.345872
-0.254248,-0.002684,0.984296,-0.7,-0.07,-0.49,1770370108.353838
-0.253272,0.000488,0.986248,0.21,1.12,0.77,1770370108.361872
-0.254736,0.00366,0.990152,0.21,3.71,0.56,1770370108.369869
-0.258152,0.000244,0.990152,2.31,4.13,0.35,1770370108.377837
-0.265472,-0.00366,0.996008,-0.21,5.18,-1.82,1770370108.385882
-0.274012,-0.011224,0.999912,2.87,5.46,-0.21,1770370108.39388
-0.284748,-0.011956,0.996984,0.35,4.27,1.4,1770370108.401851
-0.294508,-0.01464,0.993812,3.78,4.27,-2.8,1770370108.409848
-0.298168,-0.017812,0.999668,2.24,2.38,-1.05,1770370108.417942
-0.304512,-0.019276,0.997716,0.63,2.17,-2.24,1770370108.425876
-0.309636,-0.018544,1.005036,2.45,0.7,-1.61,1770370108.433847
-0.306464,-0.015616,1.005524,-0.98,-1.12,-2.1,1770370108.441846
-0.30622,-0.018544,1.002352,0.21,-1.19,-3.08,1770370108.44984
-0.303048,-0.019276,0.998448,-0.14,-1.96,-2.24,1770370108.457906
-0.296704,-0.020984,0.99064,-3.01,-2.17,-2.8,1770370108.465856
-0.293532,-0.018788,0.983564,-0.7,-3.85,-1.26,1770370108.473914
-0.2867,-0.020984,0.981612,-0.21,-4.48,-2.73,1770370108.481847
-0.281088,-0.018056,0.988932,-0.07,-3.64,0.21,1770370108.48986
-0.276696,-0.012688,0.984052,0.07,-4.2,-6.09,1770370108.497902
-0.27328,-0.010492,0.992592,-0.49,-3.64,-1.26,1770370108.50588
-0.270596,-0.014152,0.987224,1.75,-3.5,-5.04,1770370108.513848
-0.269864,-0.011956,0.989664,-2.03,-1.61,0.42,1770370108.521938
-0.264984,-0.00732,0.993324,3.78,-1.82,-1.05,1770370108.529875
-0.263276,-0.009028,0.993324,1.82,-1.82,-2.17,1770370108.537844
-0.263032,-0.009028,0.994544,-0.7,-0.49,-1.68,1770370108.545848
-0.26352,-0.005612,0.99064,3.08,-0.49,-1.05,1770370108.553832
-0.266204,-0.0061,0.994544,0.0,0.28,-1.12,1770370108.561847
-0.270108,-0.0061,0.992836,3.22,0.28,-3.15,1770370108.570183
-0.271328,-0.007808,0.99796,-0.63,1.05,-1.68,1770370108.577848
-0.27328,-0.005856,1.000888,-0.14,1.26,-4.76,1770370108.585846
-0.275476,-0.005612,1.003084,2.45,0.28,0.21,1770370108.593845
-0.277916,-0.003904,1.002108,-0.56,1.47,0.84,1770370108.601867
-0.2806,-0.005368,0.997228,2.66,-0.63,-0.84,1770370108.609849
-0.27816,-0.003416,0.992836,0.98,-2.1,-2.17,1770370108.617843
-0.27694,-0.004148,0.993324,0.56,-1.4,-2.52,1770370108.625833
-0.27694,-0.00488,0.9882,1.75,-2.03,-0.91,1770370108.633842
-0.27572,-0.000488,0.985272,0.77,-1.54,-2.94,1770370108.641901
-0.278404,-0.003416,0.985516,3.08,-1.05,1.33,1770370108.649837
-0.272792,-0.004148,0.982832,1.26,-0.42,-2.38,1770370108.65784
-0.274744,-0.006588,0.983076,-0.49,-1.96,-0.28,1770370108.665846
-0.275964,-0.00488,0.985516,1.54,-1.26,-2.03,1770370108.67396
-0.275964,-0.004392,0.99308,-0.91,-0.07,-1.12,1770370108.681857
-0.271572,-0.004392,0.995032,1.68,-0.07,-4.41,1770370108.689847
-0.275964,-0.003904,0.99918,1.75,-0.49,-1.12,1770370108.69785
-0.278892,-0.00366,0.999424,0.98,-0.21,-3.99,1770370108.706023
-0.278404,-0.006344,0.997228,2.52,-0.7,0.56,1770370108.713846
-0.277184,-0.00732,0.999912,-0.7,0.7,-3.64,1770370108.721845
-0.279868,-0.006344,1.001132,2.31,-0.91,-1.96,1770370108.729846
-0.2806,-0.011712,0.998204,1.82,-0.7,-2.45,1770370108.737877
-0.28304,-0.011956,0.993812,0.98,-0.98,-3.08,1770370108.745905
-0.28304,-0.012932,0.99308,2.24,-0.7,1.19,1770370108.753832
-0.281088,-0.011712,0.992348,-0.21,-1.05,-3.43,1770370108.761852
-0.27938,-0.00976,0.99674,2.8,-1.05,-0.84,1770370108.769852
-0.281576,-0.011224,0.993568,0.98,-2.8,-3.85,1770370108.777868
-0.277428,-0.00976,0.995764,-1.68,-2.03,-1.33,1770370108.785885
-0.275964,-0.009516,0.996008,0.63,-1.26,-1.82,1770370108.793848
-0.275476,-0.008052,0.996984,-0.21,-0.49,0.07,1770370108.80185
-0.278648,-0.010248,0.993324,2.1,-1.82,-3.29,1770370108.80997
-0.277672,-0.007076,0.992592,0.42,-2.17,-0.91,1770370108.817847
-0.279868,-0.005612,0.995032,0.0,-1.26,-1.47,1770370108.825845
-0.281576,-0.0061,0.994056,3.01,-0.49,-0.7,1770370108.833832
-0.282796,-0.002684,0.994056,0.77,-0.42,-2.38,1770370108.841853
-0.2806,-0.002684,0.992104,1.89,-1.4,-1.82,1770370108.849958
-0.281332,0.00244,0.993568,0.98,-1.75,-1.89,1770370108.857845
-0.280112,-0.000976,0.991372,-1.89,-1.96,-3.71,1770370108.86585
-0.27694,0.000976,0.987224,0.91,-2.17,-1.96,1770370108.873887
-0.276696,-0.00122,0.98698,-0.56,-0.7,-2.17,1770370108.881895
-0.272792,-0.000976,0.987956,-0.14,-2.03,-3.15,1770370108.889851
-0.272548,-0.005124,0.988688,0.35,-1.4,-1.96,1770370108.897873
-0.27084,-0.003904,0.99308,-1.89,-0.98,-3.92,1770370108.905955
-0.269864,-0.0061,0.994544,1.12,0.49,-1.05,1770370108.913839
-0.269376,-0.01098,0.993568,-1.33,-1.47,0.42,1770370108.921856
-0.27328,-0.013664,0.989908,0.98,-0.98,-1.96,1770370108.92988
-0.27572,-0.012444,0.987468,0.56,-1.61,-1.96,1770370108.937955
-0.276696,-0.013176,0.990152,1.47,-0.14,-2.03,1770370108.945847
-0.27694,-0.010492,0.990884,2.24,-0.28,-1.61,1770370108.953832
-0.276452,-0.010248,0.9943,1.19,-0.42,0.0,1770370108.961855
-0.276208,-0.01098,0.99552,0.56,-0.49,-2.38,1770370108.969859
-0.276452,-0.011712,0.993568,0.7,-1.4,-2.17,1770370108.977941
-0.277428,-0.012688,0.993324,-0.56,-0.63,-1.05,1770370108.985873
-0.276452,-0.013664,0.991616,0.35,-0.28,-0.07,1770370108.993851
-0.273524,-0.011224,0.987956,-0.77,-0.28,-3.57,1770370109.00185
-0.27816,-0.011468,0.991616,-0.42,-1.96,-3.5,1770370109.009864
-0.276452,-0.007808,0.992104,0.42,-0.28,-2.17,1770370109.017863
-0.27938,-0.0122,0.997716,0.42,-0.14,-2.73,1770370109.025849
-0.28182,-0.00976,1.002108,1.33,0.21,-2.94,1770370109.033852
-0.280356,-0.007564,1.002352,-0.7,0.28,-0.21,1770370109.041936
-0.284748,-0.010736,1.001376,3.36,0.28,-3.5,1770370109.049878
-0.286212,-0.006588,0.999424,0.63,-1.05,-0.49,1770370109.05822
-0.285236,-0.002928,0.992348,0.0,-2.1,2.38,1770370109.06968
-0.280844,0.002196,0.993812,2.24,-2.1,-0.21,1770370109.074044
-0.280112,0.001464,0.995764,-0.77,-0.91,-1.82,1770370109.081954
-0.277428,0.003416,0.994056,3.64,-2.45,-1.61,1770370109.089932
-0.278892,0.007564,0.988932,1.12,-1.47,0.0,1770370109.097842
-0.274988,0.00122,0.984052,-1.12,-1.82,-2.03,1770370109.105944
-0.277916,-0.000488,0.981612,0.14,-2.17,0.42,1770370109.113929
-0.27572,-0.000488,0.98454,-1.12,-0.14,0.07,1770370109.121853
-0.273524,-0.004392,0.99186,0.63,-1.82,-2.59,1770370109.129854
-0.274256,-0.001464,0.993568,2.8,-1.26,-0.35,1770370109.137911
-0.271328,-0.00488,0.993324,0.84,-0.63,-1.05,1770370109.145852
-0.273768,-0.003172,0.991616,1.89,-0.84,-0.21,1770370109.153838
-0.270108,-0.007808,0.99186,-0.21,-0.98,-0.56,1770370109.161847
-0.271816,-0.012688,0.98942,2.24,-0.98,-1.12,1770370109.16992
-0.270596,-0.012932,0.985028,0.07,-1.26,-2.38,1770370109.177861
-0.270108,-0.01464,0.988688,-1.75,-0.7,-2.24,1770370109.185838
-0.271816,-0.013176,0.992348,0.77,-1.96,-1.47,1770370109.193841
-0.274256,-0.013908,0.9943,-0.98,-0.7,-2.73,1770370109.20184
-0.273768,-0.011712,0.996496,-0.77,1.19,-1.47,1770370109.209846
-0.27694,-0.013176,0.998448,0.42,-0.42,-1.82,1770370109.217846
-0.278404,-0.009028,1.000156,-2.03,0.07,-2.38,1770370109.225847
-0.280356,-0.006832,0.996496,0.21,-0.7,0.28,1770370109.233844
-0.27938,-0.00976,0.9943,-2.24,-0.84,-1.47,1770370109.241857
-0.280844,-0.00976,0.98942,0.91,-1.05,-2.38,1770370109.249908
-0.281576,-0.007564,0.98454,-0.7,-1.61,-3.71,1770370109.257979
-0.281332,-0.008052,0.985272,0.56,-0.28,-2.94,1770370109.265871
-0.277916,-0.01098,0.98332,1.89,-1.47,-2.24,1770370109.273853
-0.279136,-0.01464,0.990152,-1.33,-0.98,-2.03,1770370109.281827
-0.276208,-0.015128,0.99064,1.96,0.14,-3.15,1770370109.289842
-0.274744,-0.018544,0.994544,0.14,-1.05,-3.64,1770370109.297842
-0.27572,-0.01586,0.999424,-0.91,-0.63,-3.08,1770370109.305854
-0.275232,-0.01952,1.00162,0.7,0.28,-0.7,1770370109.313843
-0.274012,-0.01464,1.002596,-1.12,0.7,-4.55,1770370109.321835
-0.279624,-0.014396,1.002352,-0.98,0.63,-3.15,1770370109.329837
-0.27938,-0.015616,0.99674,-2.24,0.14,-2.45,1770370109.337838
-0.279868,-0.01342,0.998936,1.26,-0.84,-1.12,1770370109.345837
-0.278648,-0.0183,0.9943,-0.91,-0.28,-3.08,1770370109.353843
-0.282064,-0.015128,0.996984,0.35,-0.77,-2.17,1770370109.361961
-0.283284,-0.013908,0.992104,0.42,-1.26,-0.91,1770370109.369824
-0.283284,-0.013664,0.99064,1.12,-1.4,-3.85,1770370109.377887
-0.285724,-0.010736,0.992592,1.96,-0.14,-1.89,1770370109.385835
-0.283284,-0.005856,0.991616,1.54,-0.42,-2.03,1770370109.39385
-0.282796,0.001464,0.997228,-0.35,-0.77,-1.96,1770370109.401909
-0.282796,0.007076,0.995276,1.4,0.07,-2.73,1770370109.409848
-0.282552,0.00854,0.998448,-0.91,-0.84,-0.7,1770370109.417848
-0.27816,0.010736,0.996984,-1.68,-0.7,-2.31,1770370109.425842
-0.279136,0.005856,0.993324,-0.14,-1.96,-1.68,1770370109.433872
-0.277916,0.005856,0.994056,-1.19,-2.38,-4.2,1770370109.441849
-0.275232,0.005856,0.98698,-0.91,-2.38,-2.59,1770370109.449842
-0.275476,0.003172,0.986736,-0.7,-2.03,-3.15,1770370109.457841
-0.273768,-0.00122,0.987224,1.26,-1.96,-2.73,1770370109.465844
-0.273524,-0.004392,0.983564,-0.77,-1.96,-3.85,1770370109.474035
-0.269132,-0.003172,0.989176,0.77,-1.75,-2.8,1770370109.48185
-0.271084,-0.00366,0.989664,0.0,-0.98,-0.98,1770370109.489848
-0.268888,-0.001952,0.987224,2.03,-1.75,-5.53,1770370109.497922
-0.268156,-0.006344,0.988444,1.89,-1.4,-1.96,1770370109.505887
-0.267424,-0.002684,0.9882,1.12,-1.4,-3.36,1770370109.513847
-0.266204,-0.009516,0.986736,-0.14,-1.4,-3.92,1770370109.521832
-0.263032,-0.005612,0.990396,1.68,-1.75,-4.2,1770370109.529852
-0.260836,-0.010736,0.987712,0.98,0.63,-2.03,1770370109.537861
-0.265716,-0.012444,0.998448,-0.07,0.49,-2.8,1770370109.545842
-0.266692,-0.011468,1.007232,0.35,1.19,-2.73,1770370109.553836
-0.266448,-0.010492,1.006744,-0.42,1.61,-0.49,1770370109.561897
-0.275232,-0.01586,1.002352,-0.7,1.26,-3.43,1770370109.569967
-0.27938,-0.01586,0.995032,-1.89,1.47,-2.45,1770370109.577863
-0.28426,-0.020252,0.992104,0.42,0.77,-3.08,1770370109.585846
-0.28792,-0.017324,0.991372,-0.77,1.54,-3.5,1770370109.593846
-0.289628,-0.016592,0.986736,0.21,0.49,-3.15,1770370109.601949
-0.288652,-0.01586,0.986004,0.56,0.77,-2.59,1770370109.609846
-0.285968,-0.015128,0.987712,0.7,-0.07,-4.41,1770370109.617838
-0.286944,-0.01342,0.987224,0.35,-0.63,-3.85,1770370109.625827
-0.286456,-0.012932,0.990152,1.12,-0.14,-2.8,1770370109.633848
-0.281576,-0.010492,0.991616,1.68,-1.47,-4.41,1770370109.641939
-0.281332,-0.010492,0.991372,0.91,-0.84,-3.71,1770370109.649875
-0.281088,-0.010248,0.991372,0.63,-1.75,-3.99,1770370109.657962
-0.277184,-0.012444,0.991616,0.98,-1.26,-2.94,1770370109.665876
-0.275232,-0.00732,0.994544,1.12,-2.17,-3.5,1770370109.674048
-0.27816,-0.009028,1.001132,0.7,-0.98,-2.8,1770370109.681849
-0.277672,-0.009272,0.995032,0.91,-2.17,-4.55,1770370109.689901
-0.2806,-0.003172,0.99186,0.77,-1.96,-3.64,1770370109.697864
-0.277428,-0.008052,0.992592,0.63,-2.03,-2.8,1770370109.705881
-0.278648,-0.006344,0.99186,-0.42,-2.38,-3.15,1770370109.71385
-0.274988,-0.000488,0.998204,-0.42,-0.98,-2.59,1770370109.721848
-0.273524,0.003172,0.995764,-0.42,-1.4,-4.62,1770370109.729934
-0.273768,0.00122,0.99918,0.91,-1.4,-2.38,1770370109.737909
-0.27572,0.0,0.996496,-1.68,-1.19,-2.73,1770370109.745851
-0.278404,-0.002684,0.999668,0.21,-1.26,-3.01,1770370109.753835
-0.275476,-0.004148,0.996984,-0.98,-1.61,-3.64,1770370109.761981
-0.277428,-0.006832,0.996984,0.35,-2.87,-2.59,1770370109.76984
-0.276208,-0.0122,0.996496,1.26,-2.8,-4.48,1770370109.777858
-0.27328,-0.009028,1.000156,1.05,-2.94,-3.15,1770370109.785892
-0.273036,-0.00854,0.999912,1.75,-3.85,-2.38,1770370109.793837
-0.271328,-0.000732,1.001132,0.0,-2.52,-4.27,1770370109.80185
-0.266692,-0.00122,0.998448,2.03,-2.59,-2.24,1770370109.809845
-0.266204,0.000488,0.993324,0.14,-1.96,-2.52,1770370109.817848
-0.2623,0.001708,0.988932,-0.42,-1.61,-2.94,1770370109.825961
-0.260592,0.003172,0.978684,-1.82,-1.82,-3.15,1770370109.833846
-0.260836,-0.00122,0.973316,-1.19,-0.28,-2.17,1770370109.841845
-0.258152,-0.000732,0.97356,-1.68,0.42,-3.15,1770370109.849852
-0.259372,-0.003904,0.973804,0.14,1.4,-0.49,1770370109.857847
-0.265228,-0.008052,0.971852,-0.56,-0.28,-2.8,1770370109.865869
-0.264008,-0.010248,0.973804,-0.35,0.42,-0.35,1770370109.874188
-0.26596,-0.00976,0.98088,0.49,1.19,-1.47,1770370109.881981
-0.272304,-0.008296,0.988444,1.54,1.96,-1.12,1770370109.889837
-0.276696,-0.011956,0.9943,0.56,4.41,0.07,1770370109.897845
-0.288896,-0.009516,1.002108,0.98,4.41,-2.03,1770370109.905852
-0.300852,-0.003416,1.02236,0.0,6.02,-0.91,1770370109.913855
-0.31598,0.003172,1.039684,-3.15,4.76,-1.19,1770370109.92197
-0.33184,0.012444,1.059448,-4.83,3.64,1.33,1770370109.929843
-0.347212,0.022448,1.053836,-8.47,3.85,-0.35,1770370109.937852
-0.35868,0.029036,1.027972,-13.23,2.87,0.77,1770370109.945841
-0.358192,0.031964,1.02968,-16.799999,4.2,2.24,1770370109.953905
-0.34404,0.018056,1.06506,-21.209999,3.5,2.1,1770370109.96188
-0.329156,-0.015616,1.031632,-19.879999,-2.03,7.84,1770370109.96987
-0.34404,-0.0488,0.944036,-18.200001,-12.81,10.99,1770370109.977865
-0.353556,-0.057828,0.859124,-12.95,-22.049999,18.969999,1770370109.985959
-0.349164,-0.044408,0.80276,-8.12,-28.91,20.860001,1770370109.993843
-0.322324,-0.017324,0.808616,-4.83,-33.599998,25.620001,1770370110.001849
-0.288896,0.040016,0.851804,-2.87,-33.040001,28.280001,1770370110.009844
-0.260104,0.103944,0.890112,-6.58,-30.17,29.82,1770370110.017933
-0.238144,0.158356,0.91012,-12.88,-28.280001,30.24,1770370110.025871
-0.216428,0.195688,0.91988,-20.58,-24.57,30.52,1770370110.033847
-0.187636,0.219112,0.9455,-24.219999,-22.120001,28.07,1770370110.041844
-0.158356,0.25132,0.983076,-26.879999,-19.389999,26.459999,1770370110.049843
-0.128832,0.28426,1.023824,-26.530001,-19.530001,25.129999,1770370110.058008
-0.090768,0.316956,1.051152,-26.459999,-19.809999,23.379999,1770370110.066179
-0.053924,0.333304,1.05652,-27.09,-21.49,23.24,1770370110.07448
-0.019276,0.337208,1.06262,-26.110001,-20.02,25.48,1770370110.081879
-0.002196,0.335012,1.070916,-25.27,-16.73,26.040001,1770370110.089849
0.009516,0.318908,1.069696,-26.32,-11.06,30.52,1770370110.097911
0.00976,0.292556,1.060424,-26.67,-1.61,30.66,1770370110.105858
-0.00488,0.2501,1.04554,-24.85,10.64,32.619999,1770370110.113879
-0.025132,0.185196,1.025776,-23.24,23.17,32.549999,1770370110.121843
-0.048312,0.115168,1.001376,-15.54,38.150002,29.540001,1770370110.129854
-0.081496,0.045628,0.976244,-9.45,50.330002,27.93,1770370110.137873
-0.113948,0.008052,0.9577,-2.8,56.560001,22.540001,1770370110.145987
-0.151524,0.000244,0.956236,5.18,62.09,19.879999,1770370110.153833
-0.191296,-0.000976,0.968924,8.12,62.790001,14.0,1770370110.161861
-0.225212,0.00366,0.970144,8.68,59.779999,10.08,1770370110.169842
-0.253272,0.008296,0.956236,9.1,54.880001,6.37,1770370110.177866
-0.270596,0.007076,0.943304,8.12,47.25,1.12,1770370110.185963
-0.27084,0.0061,0.942816,10.01,40.040001,-1.05,1770370110.193842
-0.261568,0.000488,0.94794,8.12,35.139999,-5.39,1770370110.201842
-0.246684,-0.010004,0.970632,10.92,31.639999,-7.28,1770370110.209839
-0.22936,-0.021228,0.995764,10.99,32.48,-9.94,1770370110.217843
-0.217404,-0.032208,1.029924,14.21,34.369999,-8.33,1770370110.225844
-0.217648,-0.032696,1.058716,15.61,38.709999,-11.34,1770370110.233948
-0.230092,-0.026108,1.071404,16.24,42.349998,-9.66,1770370110.241842
-0.25132,-0.018056,1.07238,19.25,45.990002,-10.92,1770370110.249832
-0.2745,0.0,1.083116,19.110001,50.610001,-10.92,1770370110.257833
-0.306708,0.032452,1.090436,19.879999,51.240002,-11.97,1770370110.265849
-0.341356,0.073688,1.079944,19.32,50.119999,-13.02,1770370110.273984
-0.370148,0.11834,1.047492,21.98,47.459999,-13.3,1770370110.281848
-0.396744,0.136396,1.019432,27.299999,41.299999,-11.34,1770370110.28984
-0.425536,0.142008,0.990396,32.200001,35.490002,-8.12,1770370110.297839
-0.449692,0.157868,0.946232,38.080002,28.559999,-9.66,1770370110.305822
-0.471896,0.183732,0.90158,42.98,23.24,-6.09,1770370110.313849
-0.494588,0.20984,0.899628,45.43,18.690001,-8.82,1770370110.321922
-0.517036,0.238144,0.933056,47.389999,16.59,-8.33,1770370110.329872
-0.54412,0.257176,0.96868,45.43,12.81,-9.24,1770370110.337848
-0.58072,0.262788,0.983076,44.939999,7.7,-9.52,1770370110.345837
-0.610732,0.278648,0.961116,45.290001,-0.14,-11.9,1770370110.353825
-0.639768,0.30012,0.952332,47.529999,-9.17,-11.34,1770370110.36185
-0.66002,0.32818,0.939156,45.009998,-17.15,-12.53,1770370110.369946
-0.669292,0.349164,0.902556,45.080002,-27.02,-14.14,1770370110.377855
-0.672464,0.365756,0.847412,39.759998,-34.650002,-17.01,1770370110.385845
-0.680272,0.385032,0.810568,33.389999,-40.669998,-18.690001,1770370110.393918
-0.68686,0.41358,0.809348,24.219999,-41.09,-26.530001,1770370110.401834
-0.689544,0.446276,0.825452,13.3,-42.209999,-36.049999,1770370110.409895
-0.6893,0.46726,0.82838,-2.8,-43.68,-44.52,1770370110.417881
-0.686372,0.472384,0.8174,-16.309999,-46.900002,-50.189999,1770370110.425972
-0.670024,0.469456,0.808128,-23.66,-50.68,-55.16,1770370110.433837
-0.641964,0.465308,0.817888,-27.860001,-56.139999,-56.279999,1770370110.441887
-0.603168,0.451156,0.839848,-28.77,-65.309998,-55.16,1770370110.449879
-0.547292,0.425292,0.862784,-31.780001,-76.300003,-52.5,1770370110.457904
-0.490196,0.385764,0.873276,-33.459999,-89.529999,-47.529999,1770370110.465863
-0.427732,0.316956,0.86742,-32.689999,-102.760002,-42.349998,1770370110.473853
-0.357704,0.243512,0.8662,-28.77,-115.080002,-36.82,1770370110.481928
-0.284504,0.172996,0.89182,-22.33,-122.849998,-31.15,1770370110.489877
-0.212768,0.127856,0.927688,-13.23,-126.489998,-27.02,1770370110.497911
-0.14884,0.052948,0.970876,-7.42,-126.07,-24.639999,1770370110.505854
-0.087352,0.002684,1.01992,0.7,-119.07,-24.92,1770370110.51385
-0.018544,-0.032208,1.0858,8.54,-110.389999,-27.51,1770370110.521846
0.054656,-0.107848,1.173396,13.86,-100.169998,-37.52,1770370110.529864
0.126392,-0.145424,1.244156,18.129999,-89.18,-43.959999,1770370110.537857
0.190076,-0.168848,1.301252,23.66,-78.330002,-51.099998,1770370110.545845
0.251076,-0.170068,1.333216,23.309999,-71.120003,-58.310001,1770370110.553833
0.301096,-0.156892,1.31272,21.139999,-66.220001,-63.700001,1770370110.56185
0.345504,-0.133956,1.257576,18.34,-64.889999,-66.639999,1770370110.569899
0.369416,-0.134444,1.180228,13.79,-65.449997,-66.57,1770370110.577879
0.384788,-0.140056,1.122644,10.01,-63.0,-66.010002,1770370110.585847
0.393084,-0.160308,1.105076,7.63,-58.450001,-68.879997,1770370110.593851
0.396012,-0.154696,1.10532,3.99,-46.900002,-73.57,1770370110.601942
0.393084,-0.115412,1.097756,0.91,-30.030001,-77.419998,1770370110.609848
0.377712,-0.056364,1.070672,-3.92,-10.57,-81.269997,1770370110.617845
0.34526,0.000244,1.036268,-9.66,11.27,-78.75,1770370110.625832
0.296704,0.04758,1.00162,-12.53,29.120001,-80.080002,1770370110.633852
0.246684,0.076128,0.97966,-15.12,46.689999,-78.330002,1770370110.641959
0.190564,0.091744,0.975268,-14.77,61.669998,-73.849998,1770370110.649838
0.13542,0.09516,0.979172,-11.97,73.639999,-68.669998,1770370110.65784
0.083204,0.108824,0.969656,-9.1,77.769997,-60.689999,1770370110.665852
0.035136,0.131028,0.942572,-7.42,73.43,-58.869999,1770370110.67385
0.000732,0.135664,0.900848,-4.62,66.779999,-51.939999,1770370110.681866
-0.016348,0.1403,0.861564,0.35,57.119999,-49.419998,1770370110.689846
-0.019276,0.166164,0.855952,9.03,47.810001,-43.82,1770370110.697962
-0.003416,0.217892,0.878644,9.45,39.900002,-41.02,1770370110.705846
0.02928,0.25986,0.904508,7.98,34.93,-35.139999,1770370110.713848
0.066612,0.290116,0.899872,6.86,30.59,-29.889999,1770370110.721848
0.108092,0.303536,0.903776,5.74,31.780001,-29.469999,1770370110.729871
0.146888,0.31232,0.897188,3.29,36.330002,-25.76,1770370110.737868
0.18544,0.326472,0.877424,-0.91,46.130001,-24.5,1770370110.745845
0.216428,0.33184,0.808616,-3.78,57.049999,-18.41,1770370110.753827
0.229116,0.327936,0.74786,-9.52,64.260002,-11.13,1770370110.761852
0.216184,0.305488,0.768356,-13.09,73.080002,-3.57,1770370110.769858
0.19032,0.280112,0.856196,-17.43,84.07,2.8,1770370110.778015
0.146644,0.227164,0.90036,-19.110001,96.529999,10.08,1770370110.785966
0.085888,0.15616,0.888648,-20.58,105.980003,14.0,1770370110.793852
-0.00122,0.051728,0.888648,-17.57,116.830002,21.559999,1770370110.801946
-0.090768,-0.033428,0.922808,-14.0,125.790001,26.809999,1770370110.809834
-0.20618,-0.117852,1.010404,-9.87,137.690002,30.52,1770370110.817841
-0.31964,-0.183976,1.103368,-8.75,149.589996,31.92,1770370110.825847
-0.462136,-0.233996,1.168272,-7.0,159.669998,30.73,1770370110.833847
-0.611464,-0.265716,1.192428,-9.87,163.940002,26.389999,1770370110.841905
-0.772748,-0.288164,1.192672,-13.79,159.25,14.7,1770370110.849866
-0.904752,-0.294752,1.146068,-19.879999,147.490005,5.81,1770370110.857838
-1.014796,-0.306464,1.105564,-20.23,128.169998,-6.65,1770370110.865847
-1.063596,-0.314516,1.08336,-21.629999,99.120003,-13.86,1770370110.873924
-1.08214,-0.31598,1.089216,-20.790001,66.150002,-22.469999,1770370110.881979
-1.049444,-0.2806,1.087264,-23.24,30.379999,-28.700001,1770370110.889854
-0.975756,-0.212524,1.051396,-27.58,-4.76,-34.02,1770370110.897851
-0.866688,-0.146644,1.009916,-31.709999,-34.93,-38.43,1770370110.905848
-0.737856,-0.0915,0.974536,-36.889999,-59.009998,-39.130001,1770370110.913831
-0.60512,-0.046116,0.955504,-40.880001,-77.279999,-45.5,1770370110.921857
-0.486048,-0.014884,0.970632,-42.630001,-86.519997,-46.200001,1770370110.929848
-0.38918,-0.017812,1.017236,-43.68,-89.32,-45.5,1770370110.937849
-0.328424,-0.076128,1.082384,-40.110001,-83.860001,-36.400002,1770370110.945855
-0.301096,-0.111752,1.072624,-29.33,-72.870003,-32.130001,1770370110.953943
-0.294264,-0.099796,1.016992,-17.709999,-57.82,-24.709999,1770370110.961877
-0.313784,-0.070028,0.948184,-10.29,-39.689999,-24.639999,1770370110.969854
-0.350872,-0.027328,0.858392,-6.93,-22.26,-20.299999,1770370110.977924
-0.409432,0.013664,0.76616,-4.34,-4.48,-22.959999,1770370110.985857
-0.470676,0.048068,0.70028,-3.22,10.08,-22.959999,1770370110.99384
-0.528504,0.071248,0.669292,-3.22,19.809999,-24.15,1770370111.001853
-0.587308,0.077348,0.674904,-1.89,24.709999,-28.209999,1770370111.00985
-0.643184,0.068808,0.685152,1.33,24.15,-25.48,1770370111.018015
-0.7015,0.049776,0.693692,4.76,23.799999,-22.540001,1770370111.025843
-0.76128,0.02562,0.699548,12.25,17.639999,-17.43,1770370111.033846
-0.804712,-0.001464,0.702964,13.65,7.28,-18.690001,1770370111.041851
-0.835944,-0.056364,0.687348,16.1,-6.72,-15.54,1770370111.049874
-0.854976,-0.112972,0.668072,18.200001,-26.110001,-16.1,1770370111.057922
-0.852048,-0.17568,0.65392,23.030001,-48.369999,-14.49,1770370111.066131
-0.83082,-0.241316,0.644404,27.93,-71.330002,-12.18,1770370111.07399
-0.783728,-0.312076,0.614148,34.509998,-92.540001,-11.55,1770370111.081902
-0.720044,-0.383812,0.593896,42.349998,-114.169998,-13.72,1770370111.089868
-0.64294,-0.449204,0.596336,47.950001,-129.710007,-16.870001,1770370111.097872
-0.562176,-0.504592,0.621712,56.209999,-142.520004,-20.23,1770370111.105845
-0.467992,-0.523136,0.707356,64.889999,-151.479996,-24.639999,1770370111.113861
-0.356484,-0.508984,0.843264,70.629997,-154.839996,-31.92,1770370111.121856
-0.23058,-0.45384,0.98698,74.410004,-153.229996,-39.34,1770370111.129853
-0.095404,-0.3599,1.128744,74.480003,-147.070007,-47.110001,1770370111.137884
0.03172,-0.25132,1.267336,65.309998,-133.630005,-50.889999,1770370111.145871
0.147864,-0.135908,1.359568,51.310001,-118.089996,-56.139999,1770370111.153836
0.279868,-0.001952,1.380796,32.200001,-101.43,-57.540001,1770370111.161856
0.407236,0.122976,1.338096,15.54,-91.629997,-46.41,1770370111.169851
0.490196,0.192272,1.29198,1.54,-87.849998,-35.279999,1770370111.177888
0.503616,0.238388,1.256356,-9.24,-78.959999,-21.91,1770370111.185828
0.464088,0.283772,1.19926,-17.360001,-66.010002,-18.200001,1770370111.193841
0.400648,0.330864,1.098732,-26.459999,-44.73,-17.639999,1770370111.201845
0.330864,0.365756,0.971608,-33.740002,-20.58,-21.84,1770370111.209843
0.256932,0.380152,0.846436,-39.34,5.74,-25.76,1770370111.217861
0.16714,0.391376,0.767868,-42.0,28.280001,-34.720001,1770370111.225899
0.076128,0.405772,0.73566,-46.200001,48.02,-41.439999,1770370111.233841
-0.014396,0.3904,0.74298,-50.470001,63.91,-46.41,1770370111.241841
-0.08296,0.349164,0.767624,-53.48,73.989998,-51.240002,1770370111.249838
-0.138836,0.27816,0.802028,-54.529999,73.919998,-53.830002,1770370111.257834
-0.185196,0.190076,0.833016,-53.48,66.639999,-54.599998,1770370111.265861
-0.204472,0.09028,0.86986,-46.130001,49.209999,-51.169998,1770370111.273855
-0.190564,-0.008052,0.926956,-36.68,27.93,-48.439999,1770370111.281859
-0.14274,-0.108824,1.032608,-23.799999,3.5,-45.009998,1770370111.28984
-0.070516,-0.174704,1.151924,-11.69,-16.379999,-38.009998,1770370111.297842
0.028792,-0.24156,1.219024,-1.68,-32.830002,-34.93,1770370111.305885
0.130052,-0.30622,1.231956,7.98,-42.0,-30.309999,1770370111.313845
0.226676,-0.371124,1.201212,18.129999,-45.779999,-26.040001,1770370111.321827
0.30378,-0.41968,1.122156,25.76,-41.16,-23.030001,1770370111.329843
0.373076,-0.443836,1.035048,31.01,-31.57,-15.89,1770370111.337845
0.42456,-0.45384,0.957456,28.77,-12.39,-10.92,1770370111.345858
0.474824,-0.457988,0.900116,25.129999,12.95,1.19,1770370111.353935
0.497516,-0.479216,0.87108,19.67,46.900002,14.28,1770370111.361851
0.489464,-0.521916,0.866932,19.110001,80.290001,31.85,1770370111.369825
0.427,-0.586576,0.8967,23.1,114.169998,49.630001,1770370111.378074
0.297924,-0.636596,0.945256,31.290001,145.809998,66.010002,1770370111.385847
0.133224,-0.61488,0.990152,40.110001,172.690002,78.470001,1770370111.393914
-0.04758,-0.536312,1.010892,43.610001,192.429993,83.160004,1770370111.401845
-0.23058,-0.40992,1.0492,42.560001,199.850006,85.260002,1770370111.409852
-0.413824,-0.252052,1.096048,29.33,199.710007,81.900002,1770370111.417845
-0.609756,-0.142496,1.124596,9.8,192.080002,75.459999,1770370111.425878
-0.779092,-0.1037,1.101416,-4.13,178.360001,63.98,1770370111.433857
-0.946232,-0.11956,1.074576,-12.6,162.820007,49.07,1770370111.441849
-1.069452,-0.120292,1.046028,-16.66,141.820007,29.4,1770370111.449846
-1.146312,-0.081496,1.031876,-16.66,114.099998,11.41,1770370111.457873
-1.165344,0.004636,1.028216,-17.57,85.400002,-4.62,1770370111.465851
-1.13338,0.084424,1.01626,-20.09,51.099998,-16.66,1770370111.473956
-1.056032,0.144448,1.006256,-23.17,16.799999,-22.469999,1770370111.481867
-0.959652,0.171288,1.01504,-22.889999,-14.07,-27.51,1770370111.489878
-0.857416,0.142984,1.060424,-23.59,-39.200001,-27.09,1770370111.497893
-0.759572,0.101748,1.08946,-20.09,-58.240002,-24.290001,1770370111.505856
-0.681736,0.108824,1.057252,-15.19,-68.809998,-21.84,1770370111.513851
-0.614392,0.145912,0.99308,-15.26,-73.57,-22.82,1770370111.521845
-0.552416,0.17446,0.921344,-15.12,-71.75,-22.889999,1770370111.529846
-0.514108,0.182268,0.832772,-16.870001,-63.139999,-23.59,1770370111.537967
-0.495808,0.185928,0.752008,-15.68,-50.119999,-24.99,1770370111.545842
-0.48678,0.178364,0.703696,-16.24,-37.939999,-23.940001,1770370111.553834
-0.4758,0.161284,0.679296,-15.82,-23.66,-27.440001,1770370111.561848
-0.474092,0.121268,0.674416,-15.75,-13.3,-24.5,1770370111.569844
-0.489708,0.061976,0.68076,-11.2,-8.05,-17.85,1770370111.577888
-0.510936,0.004148,0.714188,-8.75,-2.8,-11.62,1770370111.585855
-0.533384,-0.054412,0.746152,-4.13,-1.26,-3.85,1770370111.593849
-0.557296,-0.120048,0.773724,-3.43,0.49,2.03,1770370111.601892
-0.57096,-0.20008,0.773968,-2.8,-0.84,10.57,1770370111.609866
-0.58926,-0.298656,0.767624,-0.77,-3.85,15.68,1770370111.617839
-0.604876,-0.39772,0.76616,3.64,-9.38,23.66,1770370111.625834
-0.620492,-0.50874,0.776652,8.4,-15.96,24.709999,1770370111.633887
-0.645624,-0.605852,0.794708,14.14,-23.17,25.48,1770370111.64185
-0.652944,-0.683932,0.803492,18.690001,-29.82,22.469999,1770370111.649971
-0.637572,-0.720776,0.773724,29.120001,-36.82,13.58,1770370111.657843
-0.587796,-0.704428,0.720288,42.0,-44.799999,11.69,1770370111.665844
-0.52704,-0.652944,0.681492,63.349998,-55.650002,6.86,1770370111.673851
-0.4514,-0.5612,0.661728,80.849998,-67.760002,4.69,1770370111.681926
-0.374052,-0.438468,0.668072,99.75,-81.410004,-0.7,1770370111.68988
-0.29158,-0.282796,0.714188,115.5,-90.720001,-4.83,1770370111.697841
-0.215452,-0.125172,0.791536,125.440002,-94.010002,-10.57,1770370111.705839
-0.142496,0.030012,0.910608,129.429993,-89.949997,-22.68,1770370111.713863
-0.049532,0.169824,1.032364,122.5,-79.870003,-32.900002,1770370111.721965
0.048068,0.292556,1.147776,111.650002,-66.779999,-38.779999,1770370111.72985
0.131028,0.361364,1.236592,92.610001,-51.029999,-41.09,1770370111.737845
0.17934,0.376492,1.291004,71.540001,-34.02,-43.610001,1770370111.745914
0.220332,0.356972,1.311012,52.43,-20.02,-38.57,1770370111.75386
0.219112,0.3172,1.32736,31.01,-2.38,-33.040001,1770370111.761859
0.185684,0.27084,1.313452,11.2,20.02,-30.66,1770370111.769893
0.11834,0.204228,1.251964,-2.59,43.049999,-25.9,1770370111.777861
0.030988,0.161284,1.165588,-13.23,63.349998,-25.76,1770370111.78586
-0.071492,0.16836,1.09678,-15.47,78.75,-26.110001,1770370111.793843
-0.17202,0.218868,1.039684,-20.299999,88.129997,-30.66,1770370111.801979
-0.260592,0.286456,0.998204,-22.469999,88.410004,-34.369999,1770370111.809839
-0.339892,0.341112,0.95038,-26.32,82.669998,-31.92,1770370111.817846
-0.409432,0.374296,0.903288,-29.469999,74.970001,-33.599998,1770370111.825856
-0.464088,0.389424,0.875716,-32.060001,63.98,-23.870001,1770370111.833884
-0.484828,0.37576,0.877668,-37.450001,46.27,-22.26,1770370111.841848
-0.485072,0.325252,0.884988,-42.91,22.26,-24.15,1770370111.849916
-0.45384,0.228872,0.901824,-44.029999,0.98,-24.85,1770370111.857834
-0.387228,0.124196,0.906704,-39.41,-19.389999,-28.700001,1770370111.865878
-0.296216,0.034648,0.921832,-31.780001,-34.439999,-23.59,1770370111.873857
-0.206668,-0.034648,0.9394,-25.76,-44.240002,-20.790001,1770370111.881887
-0.115656,-0.09516,0.987956,-19.950001,-45.57,-16.73,1770370111.889968
-0.021228,-0.134444,1.042124,-19.67,-40.810001,-11.06,1770370111.897875
0.064172,-0.176168,1.096048,-20.790001,-28.139999,-5.53,1770370111.905844
0.13298,-0.211304,1.127036,-23.870001,-14.49,1.75,1770370111.91385
0.188856,-0.252784,1.13948,-27.440001,-1.4,8.19,1770370111.921888
0.216428,-0.289384,1.101172,-30.1,10.29,15.68,1770370111.929864
0.226676,-0.32696,1.038464,-28.209999,22.120001,25.690001,1770370111.937839
0.21594,-0.352336,0.96868,-23.24,33.669998,37.380001,1770370111.945844
0.188368,-0.344284,0.90036,-12.53,45.57,47.110001,1770370111.953839
0.141764,-0.307196,0.857904,-3.29,61.880001,59.43,1770370111.961964
0.07198,-0.273524,0.831064,5.88,78.540001,67.059998,1770370111.969844
-0.006832,-0.253272,0.832528,13.86,95.059998,73.290001,1770370111.977856
-0.10248,-0.238388,0.867908,17.99,110.739998,78.82,1770370111.98586
-0.205692,-0.201544,0.89548,27.09,120.610001,79.800003,1770370111.993876
-0.309636,-0.142008,0.919148,29.120001,126.489998,75.529999,1770370112.001849
-0.414312,-0.050264,0.968192,26.74,125.860001,68.739998,1770370112.00984
-0.536068,0.033428,1.028216,18.059999,120.610001,59.709999,1770370112.017906
-0.674904,0.084912,1.08336,4.55,117.949997,47.810001,1770370112.025857
-0.81496,0.091988,1.12606,-5.39,113.75,29.049999,1770370112.033844
-0.929396,0.067588,1.141676,-16.1,108.709999,11.48,1770370112.041856
-1.0187,0.03538,1.135332,-14.98,93.940002,-3.29,1770370112.049852
-1.06506,0.014884,1.11874,-13.58,71.190002,-17.639999,1770370112.058524
-1.067012,0.00976,1.10166,-6.65,42.77,-27.440001,1770370112.066046
-1.016016,0.034648,1.08092,-1.33,11.69,-34.860001,1770370112.074325
-0.931348,0.086864,1.057008,1.19,-19.6,-38.290001,1770370112.081923
-0.815692,0.16348,1.035048,0.21,-47.040001,-44.59,1770370112.089859
-0.684176,0.227896,1.016992,-3.57,-65.449997,-46.200001,1770370112.097988
-0.568276,0.248392,1.028948,-10.36,-75.459999,-46.970001,1770370112.105855
-0.476044,0.212036,1.009672,-16.1,-73.709999,-44.029999,1770370112.113848
-0.42212,0.166408,0.96624,-21.0,-64.330002,-40.880001,1770370112.121842
-0.404796,0.127368,0.905972,-21.209999,-46.27,-37.59,1770370112.129853
-0.413824,0.084668,0.84058,-20.440001,-25.27,-36.889999,1770370112.137862
-0.452376,0.044408,0.7686,-20.23,-3.85,-34.790001,1770370112.145846
-0.506788,0.022448,0.727364,-19.74,13.58,-36.189999,1770370112.153844
-0.57096,0.005612,0.701988,-22.75,24.5,-39.200001,1770370112.161963
-0.643672,-0.030012,0.704916,-21.35,33.459999,-33.740002,1770370112.169843
-0.716384,-0.101748,0.703208,-17.01,39.689999,-28.42,1770370112.177848
-0.80154,-0.169824,0.708576,-8.75,42.139999,-19.32,1770370112.185881
-0.88328,-0.212524,0.71492,-3.01,42.349998,-10.78,1770370112.193835
-0.945256,-0.26108,0.709796,2.73,36.470001,-2.73,1770370112.201854
-0.984784,-0.313784,0.711016,5.74,23.450001,3.57,1770370112.209834
-0.9943,-0.382836,0.717848,10.01,4.41,8.96,1770370112.217866
-0.979416,-0.463356,0.7442,12.81,-16.379999,11.76,1770370112.225854
-0.938424,-0.522404,0.79788,20.23,-33.18,12.46,1770370112.233843
-0.881328,-0.557052,0.833504,27.65,-47.25,10.85,1770370112.241849
-0.809348,-0.568032,0.811544,37.52,-55.580002,10.22,1770370112.249839
-0.732244,-0.539972,0.74298,49.419998,-64.190002,6.72,1770370112.257838
-0.638792,-0.488,0.680516,67.550003,-75.949997,9.31,1770370112.265909
-0.549,-0.413336,0.624152,83.300003,-90.300003,7.42,1770370112.273862
-0.471408,-0.298168,0.604876,98.559998,-103.110001,12.81,1770370112.28186
-0.404552,-0.155672,0.648308,110.949997,-110.949997,10.08,1770370112.289847
-0.337208,0.007808,0.738832,114.660004,-111.93,5.25,1770370112.297898
-0.266204,0.154696,0.820572,112.279999,-108.290001,-6.09,1770370112.305847
-0.209596,0.260104,0.872056,106.400002,-99.190002,-12.74,1770370112.313845
-0.14762,0.324032,0.892796,95.830002,-88.059998,-19.809999,1770370112.321839
-0.092476,0.33794,0.915,86.870003,-81.059998,-28.0,1770370112.329839
-0.033916,0.331108,0.961604,79.730003,-77.769997,-35.84,1770370112.337871
0.021228,0.314028,1.019432,70.349998,-76.790001,-48.509998,1770370112.345922
0.067344,0.33184,1.072868,61.32,-72.099998,-55.720001,1770370112.353866
0.10004,0.380396,1.07848,51.310001,-68.739998,-64.260002,1770370112.361848
0.12078,0.435784,1.043832,38.57,-64.68,-74.830002,1770370112.369824
0.142008,0.48556,0.972584,24.85,-64.540001,-83.440002,1770370112.378002
0.157868,0.52094,0.890356,9.66,-64.959999,-91.419998,1770370112.385868
0.1464,0.549488,0.800076,-5.67,-59.360001,-87.639999,1770370112.393855
0.122244,0.517036,0.734684,-28.209999,-50.68,-82.809998,1770370112.401958
0.118584,0.393816,0.75518,-42.560001,-40.810001,-75.949997,1770370112.409839
0.1464,0.223992,0.83692,-53.689999,-29.610001,-73.220001,1770370112.417845
0.171044,0.036356,0.933056,-56.349998,-15.33,-67.550003,1770370112.425843
0.196908,-0.1281,1.01748,-59.220001,-1.4,-63.0,1770370112.433878
0.218136,-0.255712,1.108492,-56.490002,9.59,-55.369999,1770370112.441833
0.224968,-0.345748,1.212192,-51.52,21.629999,-52.220001,1770370112.449839
0.230092,-0.371368,1.30906,-46.900002,35.560001,-42.0,1770370112.457839
0.231312,-0.332328,1.390556,-39.759998,52.639999,-33.599998,1770370112.465845
0.215452,-0.261324,1.428864,-33.529999,70.419998,-22.610001,1770370112.473864
0.1708,-0.172752,1.432768,-24.99,86.660004,-9.94,1770370112.481969
0.09028,-0.07442,1.388116,-18.969999,100.730003,3.71,1770370112.489857
-0.018544,0.00976,1.299056,-14.77,106.82,14.63,1770370112.497885
-0.137128,0.07198,1.183644,-17.99,109.760002,26.809999,1770370112.50585
-0.245952,0.087108,1.047736,-19.67,110.32,36.82,1770370112.513853
-0.342088,0.067344,0.922808,-19.879999,108.010002,44.799999,1770370112.521847
-0.408212,0.039528,0.830088,-16.870001,106.75,51.66,1770370112.52993
-0.444568,0.028304,0.750788,-12.32,101.010002,58.52,1770370112.537854
-0.466772,0.01952,0.685884,-3.99,90.230003,66.360001,1770370112.545847
-0.487756,0.035136,0.647332,3.64,81.199997,70.980003,1770370112.553851
-0.499712,0.061732,0.633912,9.66,75.110001,72.519997,1770370112.561872
-0.513376,0.089792,0.644648,16.73,68.32,72.379997,1770370112.569879
-0.534848,0.108824,0.678076,19.32,64.959999,68.599998,1770370112.577852
-0.551928,0.123708,0.733464,19.110001,61.32,63.98,1770370112.585868
-0.574864,0.123464,0.80398,16.309999,56.560001,57.540001,1770370112.59386
-0.627812,0.111508,0.884988,12.46,53.130001,48.369999,1770370112.601973
-0.694424,0.100528,0.94428,7.56,53.830002,37.380001,1770370112.609857
-0.764696,0.102724,0.97966,3.57,53.48,21.35,1770370112.617844
-0.831308,0.106628,0.975512,-3.43,52.360001,5.81,1770370112.625832
-0.8845,0.096868,0.945256,-4.41,46.689999,-10.22,1770370112.633868
-0.9089,0.074908,0.885476,-5.67,31.01,-28.629999,1770370112.642001
-0.905972,0.084424,0.856684,-4.69,10.92,-39.900002,1770370112.649844
-0.861808,0.125904,0.86986,-4.13,-10.36,-49.77,1770370112.657846
-0.79666,0.162748,0.913292,-6.86,-33.18,-51.029999,1770370112.665847
-0.719556,0.192028,0.94672,-9.87,-47.389999,-46.27,1770370112.673927
-0.63806,0.19886,0.946964,-17.01,-53.759998,-43.959999,1770370112.681873
-0.571204,0.198128,0.927932,-23.450001,-53.48,-37.52,1770370112.689903
-0.535336,0.183732,0.90524,-31.99,-45.150002,-34.369999,1770370112.697854
-0.526796,0.165188,0.865224,-41.580002,-28.77,-30.379999,1770370112.70592
-0.549732,0.145912,0.826184,-48.860001,-10.71,-23.870001,1770370112.713858
-0.607316,0.088328,0.829844,-53.759998,9.94,-18.34,1770370112.721847
-0.704916,-0.008784,0.838628,-50.119999,28.700001,-7.0,1770370112.729849
-0.836676,-0.119804,0.832284,-44.52,45.360001,2.17,1770370112.737877
-0.976976,-0.232776,0.81008,-39.549999,56.139999,14.0,1770370112.74587
-1.091656,-0.30988,0.8113,-28.98,55.580002,20.860001,1770370112.75385
-1.192184,-0.366976,0.818132,-17.219999,46.130001,24.43,1770370112.76186
-1.258552,-0.396988,0.838384,-5.67,30.73,26.6,1770370112.769842
-1.298568,-0.391864,0.857904,8.75,8.4,24.01,1770370112.777865
-1.296372,-0.356972,0.874008,23.1,-19.040001,21.98,1770370112.785868
-1.257576,-0.301584,0.874496,32.900002,-46.549999,11.41,1770370112.793853
-1.150948,-0.238144,0.850584,40.32,-73.220001,6.86,1770370112.801888
-0.994788,-0.164212,0.820816,46.34,-99.75,2.59,1770370112.809873
-0.829356,-0.059536,0.742004,51.869999,-120.75,0.84,1770370112.817849
-0.688568,0.0183,0.622688,57.189999,-137.830002,1.19,1770370112.825843
-0.564616,0.03416,0.519964,62.299999,-148.610001,-1.47,1770370112.83383
-0.440176,0.013664,0.463356,65.730003,-157.009995,-7.98,1770370112.84185
-0.295972,-0.011468,0.450668,66.010002,-162.050003,-15.4,1770370112.84995
-0.141764,0.008052,0.478484,69.089996,-162.820007,-21.0,1770370112.857846
