acc_x,acc_y,acc_z,gyro_x_deg,gyro_y_deg,gyro_z_deg,timestamp,gyro_x,gyro_y,gyro_z
-2.11358412,-0.27048132,9.86658408,-0.35,-1.26,-3.64,1770370106,-0.006105556,-0.02198,-0.063497778
-2.08486044,-0.2633004,9.83546676,-0.35,-1.19,-5.74,1770370106,-0.006105556,-0.020758889,-0.100131111
-2.06331768,-0.24893856,9.8498286,-0.42,-1.96,-2.87,1770370106,-0.007326667,-0.034191111,-0.050065556
-1.9986894,-0.21303396,9.89052048,1.33,-0.84,-5.67,1770370106,0.023201111,-0.014653333,-0.09891
-1.97714664,-0.18909756,9.90009504,-1.54,-1.26,-6.86,1770370106,-0.026864444,-0.02198,-0.119668889
-1.91730564,-0.1675548,9.9216378,0.07,-2.1,-8.33,1770370106,0.001221111,-0.036633333,-0.145312222
-1.86464556,-0.1436184,9.93121236,-0.7,0.28,-6.16,1770370106,-0.012211111,0.004884444,-0.107457778
-1.83592188,-0.16276752,9.91685052,-1.47,-0.42,-6.86,1770370106,-0.025643333,-0.007326667,-0.119668889
-1.81677276,-0.21064032,9.90727596,-2.1,0.63,-5.53,1770370106,-0.036633333,0.01099,-0.096467778
-1.84549644,-0.25372584,9.90727596,1.75,1.19,-8.68,1770370106,0.030527778,0.020758889,-0.151417778
-1.8071982,-0.24415128,9.90727596,1.54,1.96,-5.18,1770370106,0.026864444,0.034191111,-0.090362222
-1.84070916,-0.23457672,9.91445688,1.12,3.64,-7,1770370106,0.019537778,0.063497778,-0.122111111
-1.90533744,-0.23218308,9.95993604,2.8,4.41,-5.67,1770370106,0.048844444,0.07693,-0.09891
-1.97235936,-0.24415128,10.01020248,-1.12,4.97,-4.76,1770370106,-0.019537778,0.086698889,-0.083035556
-2.05374312,-0.26808768,10.00302156,4.34,4.27,-8.12,1770370106,0.075708889,0.074487778,-0.141648889
-2.18299968,-0.27766224,10.03413888,0.91,5.25,-5.6,1770370106,0.015874444,0.091583333,-0.097688889
-2.29310712,-0.3111732,10.03653252,1.54,5.18,-7,1770370106,0.026864444,0.090362222,-0.122111111
-2.33619264,-0.28244952,9.98626608,2.31,3.15,-3.57,1770370106,0.040296667,0.05495,-0.062276667
-2.41039548,-0.28963044,9.91445688,-0.21,2.17,-7,1770370106,-0.003663333,0.037854444,-0.122111111
-2.42236368,-0.2872368,9.90248868,1.89,-0.77,-6.23,1770370106,0.03297,-0.013432222,-0.108678889
-2.37927816,-0.28484316,9.90009504,0.42,-2.17,-3.29,1770370106,0.007326667,-0.037854444,-0.057392222
-2.333799,-0.32074776,9.86419044,1.54,-4.48,-5.88,1770370106,0.026864444,-0.078151111,-0.102573333
-2.24762796,-0.35425872,9.83307312,1.33,-4.06,-4.62,1770370106,0.023201111,-0.070824444,-0.080593333
-2.22369156,-0.41170608,9.8019558,1.89,-5.46,-5.74,1770370106,0.03297,-0.095246667,-0.100131111
-2.16385056,-0.45000432,9.67988016,1.54,-6.72,-4.76,1770370106,0.026864444,-0.117226667,-0.083035556
-2.10161592,-0.53378172,9.61764552,3.01,-7.49,-7.42,1770370106,0.052507778,-0.130658889,-0.129437778
-2.05134948,-0.58883544,9.64158192,3.43,-5.25,-5.18,1770370106,0.059834444,-0.091583333,-0.090362222
-2.04177492,-0.55293084,9.66073104,5.67,-3.29,-5.53,1770370106,0.09891,-0.057392222,-0.096467778
-2.0226258,-0.5266008,9.73732752,3.01,-1.61,-7.42,1770370106,0.052507778,-0.028085556,-0.129437778
-2.00108304,-0.4906962,9.9216378,6.65,-2.31,-5.95,1770370106,0.116005556,-0.040296667,-0.103794444
-2.04895584,-0.41409972,10.12030992,6.23,-0.98,-5.67,1770370106,0.108678889,-0.017095556,-0.09891
-2.09922228,-0.20585304,10.17536364,5.81,-0.7,-4.9,1770370106,0.101352222,-0.012211111,-0.085477778
-2.12555232,-0.03829824,10.17775728,5.04,-1.75,-7.84,1770370106,0.08792,-0.030527778,-0.136764444
-2.10400956,0.10053288,10.19451276,1.54,-3.15,-5.74,1770370106,0.026864444,-0.05495,-0.100131111
-2.10161592,0.15798024,10.08440532,3.43,-3.71,-9.03,1770370106,0.059834444,-0.064718889,-0.157523333
-2.02980672,0.15079932,9.993447,-0.42,-5.74,-9.24,1770370106,-0.007326667,-0.100131111,-0.161186667
-1.94124204,0.05266008,9.98626608,-1.54,-3.5,-7,1770370106,-0.026864444,-0.061055556,-0.122111111
-1.87182648,-0.01675548,10.02456432,0.35,-4.06,-8.47,1770370106,0.006105556,-0.070824444,-0.147754444
-1.83592188,-0.11489472,10.13467176,-2.31,-2.87,-5.53,1770370106,-0.040296667,-0.050065556,-0.096467778
-1.83592188,-0.14601204,10.18733184,0.91,-1.05,-5.74,1770370106,0.015874444,-0.018316667,-0.100131111
-1.89815652,-0.10053288,10.2088746,2.87,1.61,-5.74,1770370106,0.050065556,0.028085556,-0.100131111
-1.98193392,-0.06941556,10.23041736,0.77,3.29,-5.39,1770370107,0.013432222,0.057392222,-0.094025556
-2.06092404,-0.00478728,10.20648096,2.87,3.71,-3.43,1770370107,0.050065556,0.064718889,-0.059834444
-2.13512688,0.02872368,10.20648096,-0.42,4.55,-3.71,1770370107,-0.007326667,0.079372222,-0.064718889
-2.20693608,0.07420284,10.13945904,1.54,4.48,-7.35,1770370107,0.026864444,0.078151111,-0.128216667
-2.28113892,0.1436184,10.0413198,1.47,2.94,-5.53,1770370107,0.025643333,0.051286667,-0.096467778
-2.333799,0.179523,9.93839328,-0.56,2.73,-5.53,1770370107,-0.009768889,0.047623333,-0.096467778
-2.32422444,0.20585304,9.813924,1.33,0.84,-3.99,1770370107,0.023201111,0.014653333,-0.069603333
-2.34816084,0.15319296,9.80674308,-0.77,0.35,-3.99,1770370107,-0.013432222,0.006105556,-0.069603333
-2.35055448,0.15079932,9.83307312,3.08,-2.17,-5.88,1770370107,0.053728889,-0.037854444,-0.102573333
-2.27156436,0.119682,9.80674308,1.4,-2.73,-6.3,1770370107,0.024422222,-0.047623333,-0.1099
-2.24284068,0.06941556,9.70142292,1.89,-2.66,-3.5,1770370107,0.03297,-0.046402222,-0.061055556
-2.20693608,-0.02633004,9.68466744,4.13,-2.52,-5.39,1770370107,0.072045556,-0.04396,-0.094025556
-2.13991416,-0.11728836,9.6703056,2.87,-2.59,-2.8,1770370107,0.050065556,-0.045181111,-0.048844444
-2.11597776,-0.22021488,9.72535932,5.39,-2.31,-3.64,1770370107,0.094025556,-0.040296667,-0.063497778
-2.1064032,-0.31835412,9.76365756,4.76,-1.26,-4.83,1770370107,0.083035556,-0.02198,-0.084256667
-2.06092404,-0.41170608,9.7780194,2.87,0.49,-2.52,1770370107,0.050065556,0.008547778,-0.04396
-2.1064032,-0.52420716,9.81153036,6.02,1.82,-3.64,1770370107,0.105015556,0.031748889,-0.063497778
-2.10879684,-0.58165452,9.77562576,4.48,2.17,-4.62,1770370107,0.078151111,0.037854444,-0.080593333
-2.13752052,-0.64867644,9.76365756,4.97,2.52,-5.74,1770370107,0.086698889,0.04396,-0.100131111
-2.13752052,-0.66064464,9.72057204,4.2,2.03,-9.8,1770370107,0.073266667,0.035412222,-0.170955556
-2.08725408,-0.70133652,9.72057204,3.99,0.91,-4.83,1770370107,0.069603333,0.015874444,-0.084256667
-2.00826396,-0.73724112,9.75168936,6.02,0.28,-9.1,1770370107,0.105015556,0.004884444,-0.158744444
-1.91969928,-0.79947576,9.76365756,4.55,0.49,-7.84,1770370107,0.079372222,0.008547778,-0.136764444
-1.89576288,-0.82819944,9.74450844,7.56,-0.7,-9.45,1770370107,0.13188,-0.012211111,-0.16485
-1.85028372,-0.84734856,9.7181784,5.74,-0.28,-9.31,1770370107,0.100131111,-0.004884444,-0.162407778
-1.8071982,-0.83298672,9.68945472,7.42,0.7,-6.44,1770370107,0.129437778,0.012211111,-0.112342222
-1.78565544,-0.85931676,9.70381656,6.65,2.66,-5.88,1770370107,0.116005556,0.046402222,-0.102573333
-1.8431028,-0.83059308,9.74690208,6.44,3.29,-10.36,1770370107,0.112342222,0.057392222,-0.180724444
-1.86225192,-0.79947576,9.81153036,9.52,3.15,-5.18,1770370107,0.166071111,0.05495,-0.090362222
-1.92448656,-0.72766656,9.88812684,6.79,3.01,-7.63,1770370107,0.118447778,0.052507778,-0.133101111
-1.96757208,-0.66064464,9.92642508,6.58,5.18,-6.86,1770370107,0.114784444,0.090362222,-0.119668889
-2.0106576,-0.56489904,9.88812684,4.41,5.18,-2.8,1770370107,0.07693,0.090362222,-0.048844444
-2.09922228,-0.49548348,9.8019558,4.2,5.81,-6.09,1770370107,0.073266667,0.101352222,-0.106236667
-2.13991416,-0.38537604,9.7301466,5.32,6.09,-7.07,1770370107,0.092804444,0.106236667,-0.123332222
-2.21651064,-0.3351096,9.79238124,2.31,6.72,-6.3,1770370107,0.040296667,0.117226667,-0.1099
-2.2619898,-0.21064032,9.83067948,4.55,5.95,-6.3,1770370107,0.079372222,0.103794444,-0.1099
-2.29071348,-0.179523,9.90727596,4.69,6.51,-5.39,1770370107,0.081814444,0.113563333,-0.094025556
-2.3457672,-0.12207564,9.9096696,1.89,5.95,-8.54,1770370107,0.03297,0.103794444,-0.148975556
-2.3457672,-0.0718092,9.87615864,5.53,5.81,-5.39,1770370107,0.096467778,0.101352222,-0.094025556
-2.31225624,-0.05026644,9.71578476,2.66,4.2,-13.02,1770370107,0.046402222,0.073266667,-0.227126667
-2.333799,-0.10053288,9.63918828,3.64,2.38,-8.33,1770370107,0.063497778,0.041517778,-0.145312222
-2.29550076,-0.10292652,9.61285824,5.81,1.82,-7.7,1770370107,0.101352222,0.031748889,-0.134322222
-2.29071348,-0.059841,9.56498544,3.78,0.14,-10.01,1770370107,0.06594,0.002442222,-0.174618889
-2.26917072,-0.06462828,9.62722008,6.86,-2.1,-9.94,1770370107,0.119668889,-0.036633333,-0.173397778
-2.2260852,-0.07420284,9.56737908,7.21,-3.15,-11.83,1770370107,0.125774444,-0.05495,-0.206367778
-2.16863784,-0.0718092,9.59131548,3.92,-2.38,-11.76,1770370107,0.068382222,-0.041517778,-0.205146667
-2.08725408,-0.01675548,9.74690208,8.33,-1.96,-11.41,1770370107,0.145312222,-0.034191111,-0.199041111
-2.02501944,0.04308552,9.84743496,7.42,1.68,-11.83,1770370107,0.129437778,0.029306667,-0.206367778
-2.0226258,0.15798024,9.98626608,8.75,1.82,-12.81,1770370107,0.152638889,0.031748889,-0.223463333
-2.05134948,0.25611948,10.01259612,7.63,2.38,-11.69,1770370107,0.133101111,0.041517778,-0.203925556
-2.08486044,0.27287496,10.03653252,7.21,4.27,-12.39,1770370107,0.125774444,0.074487778,-0.216136667
-2.15666964,0.33750324,10.0293516,9.03,5.18,-12.04,1770370107,0.157523333,0.090362222,-0.210031111
-2.2021488,0.35186508,10.053288,5.11,5.74,-11.97,1770370107,0.089141111,0.100131111,-0.20881
-2.3098626,0.37580148,10.04850072,7.42,6.72,-11.34,1770370107,0.129437778,0.117226667,-0.19782
-2.35534176,0.35665236,10.14663996,4.41,5.46,-12.81,1770370107,0.07693,0.095246667,-0.223463333
-2.44869372,0.31356684,10.19451276,4.97,4.62,-7.77,1770370107,0.086698889,0.080593333,-0.135543333
-2.4774174,0.28484316,10.19211912,1.89,5.32,-6.44,1770370107,0.03297,0.092804444,-0.112342222
-2.49417288,0.25611948,10.18254456,1.89,1.96,-6.86,1770370107,0.03297,0.034191111,-0.119668889
-2.48459832,0.2034594,10.12030992,1.33,1.75,-10.5,1770370107,0.023201111,0.030527778,-0.183166667
-2.4893856,0.10532016,10.11073536,0.42,1.4,-4.97,1770370107,0.007326667,0.024422222,-0.086698889
-2.44869372,0.0119682,10.05089436,-0.63,1.4,-7.56,1770370107,-0.01099,0.024422222,-0.13188
-2.45587464,-0.03829824,9.98865972,2.66,0.63,-5.04,1770370107,0.046402222,0.01099,-0.08792
-2.44869372,-0.09095832,9.88812684,-0.14,0.42,-0.14,1770370107,-0.002442222,0.007326667,-0.002442222
-2.46305556,-0.14601204,9.7421148,3.57,0.07,-4.69,1770370107,0.062276667,0.001221111,-0.081814444
-2.49177924,-0.18431028,9.66073104,1.54,-1.26,-0.56,1770370107,0.026864444,-0.02198,-0.009768889
-2.453481,-0.18909756,9.64876284,0.35,-0.28,0.63,1770370107,0.006105556,-0.004884444,0.01099
-2.44630008,-0.24654492,9.61525188,2.45,0.28,2.1,1770370107,0.042738889,0.004884444,0.036633333
-2.43193824,-0.28244952,9.66073104,-0.21,1.33,2.94,1770370107,-0.003663333,0.023201111,0.051286667
-2.37927816,-0.34468416,9.7181784,3.92,1.61,4.48,1770370107,0.068382222,0.028085556,0.078151111
-2.40321456,-0.32074776,9.754083,0.98,2.52,3.92,1770370107,0.017095556,0.04396,0.068382222
-2.44869372,-0.3111732,9.79238124,3.01,4.06,4.13,1770370107,0.052507778,0.070824444,0.072045556
-2.46066192,-0.30638592,9.79477488,1.33,3.92,2.73,1770370107,0.023201111,0.068382222,0.047623333
-2.47981104,-0.29441772,9.76126392,0.21,3.85,6.37,1770370107,0.003663333,0.067161111,0.111121111
-2.4654492,-0.2633004,9.754083,1.47,3.92,3.57,1770370107,0.025643333,0.068382222,0.062276667
-2.49177924,-0.23457672,9.81871128,0.42,2.73,6.3,1770370107,0.007326667,0.047623333,0.1099
-2.52768384,-0.18670392,9.83067948,-0.21,4.34,4.97,1770370107,-0.003663333,0.075708889,0.086698889
-2.53965204,-0.1555866,9.85222224,0.98,4.27,6.16,1770370107,0.017095556,0.074487778,0.107457778
-2.57555664,-0.07899012,9.91924416,-0.63,4.83,7.42,1770370107,-0.01099,0.084256667,0.129437778
-2.573163,-0.0239364,9.91924416,1.75,5.46,3.01,1770370107,0.030527778,0.095246667,0.052507778
-2.61385488,0.03829824,9.89530776,-1.68,5.18,4.97,1770370107,-0.029306667,0.090362222,0.086698889
-2.65454676,0.02633004,9.813924,-0.98,5.18,-1.12,1770370107,-0.017095556,0.090362222,-0.019537778
-2.64736584,0.05266008,9.7062102,-1.33,4.69,4.34,1770370107,-0.023201111,0.081814444,0.075708889
-2.66651496,0.03351096,9.67748652,-2.45,4.48,-0.21,1770370107,-0.042738889,0.078151111,-0.003663333
-2.6808768,0.03111732,9.694242,-0.63,3.92,0.28,1770370107,-0.01099,0.068382222,0.004884444
-2.68805772,0.0359046,9.72775296,-1.89,2.31,-2.03,1770370107,-0.03297,0.040296667,-0.035412222
-2.65215312,0.03829824,9.73254024,-3.71,1.96,-1.61,1770370107,-0.064718889,0.034191111,-0.028085556
-2.61146124,0.01914912,9.79716852,-1.47,1.19,-1.96,1770370107,-0.025643333,0.020758889,-0.034191111
-2.56598208,-0.01675548,9.78280668,-2.38,0.07,-2.87,1770370107,-0.041517778,0.001221111,-0.050065556
-2.55162024,-0.03829824,9.78759396,-0.91,0.49,-3.15,1770370107,-0.015874444,0.008547778,-0.05495
-2.51810928,-0.08138376,9.75647664,-1.68,-1.4,-0.91,1770370107,-0.029306667,-0.024422222,-0.015874444
-2.453481,-0.07659648,9.74929572,-0.07,-0.49,-2.52,1770370107,-0.001221111,-0.008547778,-0.04396
-2.42236368,-0.06941556,9.78041304,-0.14,0.21,0.77,1770370107,-0.002442222,0.003663333,0.013432222
-2.38645908,-0.00957456,9.7660512,-1.47,0.28,-0.28,1770370107,-0.025643333,0.004884444,-0.004884444
-2.38645908,0.02633004,9.73493388,0.42,1.47,-1.61,1770370107,0.007326667,0.025643333,-0.028085556
-2.36491632,0.0359046,9.7301466,0.21,2.52,1.68,1770370107,0.003663333,0.04396,0.029306667
-2.36730996,0.00478728,9.79238124,-1.33,1.54,-0.91,1770370107,-0.023201111,0.026864444,-0.015874444
-2.36252268,-0.01675548,9.89052048,-0.56,2.87,3.01,1770370107,-0.009768889,0.050065556,0.052507778
-2.4056082,-0.05026644,9.87615864,-3.01,2.59,0.77,1770370107,-0.052507778,0.045181111,0.013432222
-2.43911916,-0.03111732,9.91206324,-1.47,2.94,-0.84,1770370107,-0.025643333,0.051286667,-0.014653333
-2.4774174,-0.06941556,9.97190424,-1.68,3.5,3.43,1770370107,-0.029306667,0.061055556,0.059834444
-2.53007748,-0.06702192,9.97908516,-1.75,3.29,0.28,1770370107,-0.030527778,0.057392222,0.004884444
-2.53486476,-0.07420284,9.97669152,-1.54,2.94,3.5,1770370107,-0.026864444,0.051286667,0.061055556
-2.58273756,-0.02872368,9.94078692,-3.22,2.94,3.36,1770370107,-0.056171111,0.051286667,0.058613333
-2.64736584,-0.00239364,9.9096696,-1.82,3.5,-0.35,1770370107,-0.031748889,0.061055556,-0.006105556
-2.64975948,0.02154276,9.87855228,-2.66,2.17,5.6,1770370107,-0.046402222,0.037854444,0.097688889
-2.63539764,0.04547916,9.82110492,-2.45,1.05,1.54,1770370107,-0.042738889,0.018316667,0.026864444
-2.62821672,0.02872368,9.77083848,-2.45,1.05,5.46,1770370107,-0.042738889,0.018316667,0.095246667
-2.5851312,0.0478728,9.7660512,-3.01,0.49,2.8,1770370107,-0.052507778,0.008547778,0.048844444
-2.56358844,0.0359046,9.78041304,-0.91,0.42,5.18,1770370107,-0.015874444,0.007326667,0.090362222
-2.5611948,0.05266008,9.79477488,-1.75,-0.49,0.84,1770370107,-0.030527778,-0.008547778,0.014653333
-2.58273756,0.05026644,9.75647664,-3.43,-0.07,0.91,1770370107,-0.059834444,-0.001221111,0.015874444
-2.55401388,0.05026644,9.73972116,-0.91,-0.77,3.99,1770370107,-0.015874444,-0.013432222,0.069603333
-2.54443932,0.0478728,9.71099748,-2.8,-0.91,1.12,1770370107,-0.048844444,-0.015874444,0.019537778
-2.53965204,-0.00478728,9.71578476,-0.98,-0.7,4.69,1770370107,-0.017095556,-0.012211111,0.081814444
-2.54443932,0.00239364,9.72057204,0.56,-0.49,0.35,1770370107,0.009768889,-0.008547778,0.006105556
-2.5252902,0.00957456,9.79477488,-0.91,-0.7,3.43,1770370107,-0.015874444,-0.012211111,0.059834444
-2.51810928,0.00478728,9.83546676,0.56,-0.63,1.68,1770370107,0.009768889,-0.01099,0.029306667
-2.50853472,0.01675548,9.88812684,-0.21,-1.61,2.66,1770370107,-0.003663333,-0.028085556,0.046402222
-2.50374744,0.05026644,9.88812684,2.1,-0.63,0.56,1770370107,0.036633333,-0.01099,0.009768889
-2.513322,0.059841,9.86419044,0.35,-0.7,1.54,1770370107,0.006105556,-0.012211111,0.026864444
-2.49896016,0.04069188,9.84504132,-0.77,-1.54,0.84,1770370107,-0.013432222,-0.026864444,0.014653333
-2.4893856,0.01914912,9.79956216,-1.12,-1.75,1.89,1770370107,-0.019537778,-0.030527778,0.03297
-2.4893856,-0.0239364,9.78041304,-0.56,-0.28,0.63,1770370107,-0.009768889,-0.004884444,0.01099
-2.45826828,-0.05744736,9.77083848,-0.21,-1.54,2.52,1770370107,-0.003663333,-0.026864444,0.04396
-2.45108736,-0.09335196,9.81153036,0,-1.75,2.87,1770370107,0,-0.030527778,0.050065556
-2.43672552,-0.09335196,9.82349856,-1.12,-1.61,-1.4,1770370108,-0.019537778,-0.028085556,-0.024422222
-2.44390644,-0.0957456,9.78041304,0.21,-1.75,4.13,1770370108,0.003663333,-0.030527778,0.072045556
-2.45587464,-0.10053288,9.754083,-2.1,-0.7,2.45,1770370108,-0.036633333,-0.012211111,0.042738889
-2.48699196,-0.1077138,9.7660512,0.7,-1.4,0.77,1770370108,0.012211111,-0.024422222,0.013432222
-2.4774174,-0.11010744,9.80674308,1.26,-1.05,-0.35,1770370108,0.02198,-0.018316667,-0.006105556
-2.48220468,-0.10532016,9.7780194,-0.56,-1.82,0.77,1770370108,-0.009768889,-0.031748889,0.013432222
-2.453481,-0.10292652,9.77562576,0.42,-1.47,0.56,1770370108,0.007326667,-0.025643333,0.009768889
-2.46305556,-0.09813924,9.75168936,-0.7,-1.75,1.54,1770370108,-0.012211111,-0.030527778,0.026864444
-2.42475732,-0.11489472,9.7660512,2.03,-1.4,1.19,1770370108,0.035412222,-0.024422222,0.020758889
-2.39124636,-0.11489472,9.75887028,0.77,-2.38,2.03,1770370108,0.013432222,-0.041517778,0.035412222
-2.42715096,-0.09813924,9.75168936,-3.92,-2.73,0,1770370108,-0.068382222,-0.047623333,0
-2.41039548,-0.06941556,9.75647664,1.4,-0.49,1.75,1770370108,0.024422222,-0.008547778,0.030527778
-2.41518276,-0.07659648,9.74450844,-1.68,-1.26,0.63,1770370108,-0.029306667,-0.02198,0.01099
-2.44869372,-0.0478728,9.78041304,0.07,0.07,0.21,1770370108,0.001221111,0.001221111,0.003663333
-2.45587464,-0.03351096,9.86658408,1.19,0.49,1.05,1770370108,0.020758889,0.008547778,0.018316667
-2.48699196,-0.00718092,9.8857332,-1.68,0.28,1.75,1770370108,-0.029306667,0.004884444,0.030527778
-2.51810928,-0.05266008,9.83067948,0.56,0.21,1.47,1770370108,0.009768889,0.003663333,0.025643333
-2.5372584,-0.0119682,9.82110492,-1.54,1.61,1.4,1770370108,-0.026864444,0.028085556,0.024422222
-2.52768384,-0.02154276,9.84025404,2.59,-0.07,-1.61,1770370108,0.045181111,-0.001221111,-0.028085556
-2.52768384,-0.02154276,9.8378604,0.56,0.49,-2.03,1770370108,0.009768889,0.008547778,-0.035412222
-2.48459832,-0.01436184,9.84504132,1.47,-0.42,1.68,1770370108,0.025643333,-0.007326667,0.029306667
-2.47263012,-0.04308552,9.78759396,0.7,0.49,-2.38,1770370108,0.012211111,0.008547778,-0.041517778
-2.46305556,-0.09813924,9.76844484,0.77,-1.61,-0.56,1770370108,0.013432222,-0.028085556,-0.009768889
-2.48459832,-0.12446928,9.78280668,0.84,-0.84,0,1770370108,0.014653333,-0.014653333,0
-2.45587464,-0.1436184,9.79238124,0.21,-1.54,-1.26,1770370108,0.003663333,-0.026864444,-0.02198
-2.48220468,-0.16276752,9.79716852,-0.14,-0.14,0.77,1770370108,-0.002442222,-0.002442222,0.013432222
-2.49896016,-0.1436184,9.84504132,0,0.49,-1.12,1770370108,0,0.008547778,-0.019537778
-2.51092836,-0.1675548,9.8617968,1.33,0.07,-0.35,1770370108,0.023201111,0.001221111,-0.006105556
-2.55880116,-0.15079932,9.8977014,0.35,1.19,-2.59,1770370108,0.006105556,0.020758889,-0.045181111
-2.54204568,-0.10053288,9.90248868,0.98,-0.21,2.24,1770370108,0.017095556,-0.003663333,0.039075556
-2.55401388,-0.10292652,9.84504132,-0.14,-0.07,-3.15,1770370108,-0.002442222,-0.001221111,-0.05495
-2.55880116,-0.07659648,9.83546676,1.33,-1.61,0.91,1770370108,0.023201111,-0.028085556,0.015874444
-2.53486476,-0.02872368,9.78759396,0.21,-0.98,-0.35,1770370108,0.003663333,-0.017095556,-0.006105556
-2.55880116,-0.02154276,9.78759396,2.1,-2.24,-0.84,1770370108,0.036633333,-0.039075556,-0.014653333
-2.54443932,0.0119682,9.81871128,1.75,-0.28,-1.96,1770370108,0.030527778,-0.004884444,-0.034191111
-2.53965204,0.05744736,9.82349856,0.35,0.07,-1.4,1770370108,0.006105556,0.001221111,-0.024422222
-2.5372584,0.06223464,9.84743496,0.98,0.42,1.54,1770370108,0.017095556,0.007326667,0.026864444
-2.53486476,0.03351096,9.8258922,-2.1,0.07,-0.28,1770370108,-0.036633333,0.001221111,-0.004884444
-2.54204568,0.00239364,9.81153036,2.03,-1.12,-0.49,1770370108,0.035412222,-0.019537778,-0.008547778
-2.56598208,-0.0239364,9.74450844,-0.14,-1.05,-0.35,1770370108,-0.002442222,-0.018316667,-0.006105556
-2.50853472,-0.09813924,9.7181784,-1.96,-1.61,-1.82,1770370108,-0.034191111,-0.028085556,-0.031748889
-2.513322,-0.10532016,9.70860384,3.01,-2.1,0.84,1770370108,0.052507778,-0.036633333,0.014653333
-2.49417288,-0.0957456,9.694242,-1.33,-0.84,-1.05,1770370108,-0.023201111,-0.014653333,-0.018316667
-2.47023648,-0.0478728,9.72775296,2.03,-0.7,-2.38,1770370108,0.035412222,-0.012211111,-0.041517778
-2.47981104,-0.0478728,9.694242,0.21,-1.26,-3.15,1770370108,0.003663333,-0.02198,-0.05495
-2.46784284,-0.059841,9.73493388,1.54,-0.07,-0.84,1770370108,0.026864444,-0.001221111,-0.014653333
-2.51810928,-0.03829824,9.77323212,1.26,-0.07,-3.5,1770370108,0.02198,-0.001221111,-0.061055556
-2.513322,-0.02633004,9.77083848,-0.63,0.7,-1.61,1770370108,-0.01099,0.012211111,-0.028085556
-2.53486476,-0.05266008,9.79238124,1.12,0.07,-0.35,1770370108,0.019537778,0.001221111,-0.006105556
-2.5611948,-0.06462828,9.75887028,0.56,0.49,-3.64,1770370108,0.009768889,0.008547778,-0.063497778
-2.53247112,-0.06223464,9.75647664,0.14,-0.7,-2.52,1770370108,0.002442222,-0.012211111,-0.04396
-2.51571564,-0.09095832,9.74929572,-0.42,-0.07,-0.56,1770370108,-0.007326667,-0.001221111,-0.009768889
-2.47263012,-0.09095832,9.7660512,-0.98,-0.07,-3.08,1770370108,-0.017095556,-0.001221111,-0.053728889
-2.48699196,-0.10532016,9.76126392,1.12,0.07,-4.41,1770370108,0.019537778,0.001221111,-0.07693
-2.4415128,-0.12686292,9.78520032,-0.07,1.19,-3.36,1770370108,-0.001221111,0.020758889,-0.058613333
-2.4654492,-0.18670392,9.80674308,-2.45,1.47,-4.2,1770370108,-0.042738889,0.025643333,-0.073266667
-2.42715096,-0.239364,9.813924,1.68,1.82,-3.29,1770370108,0.029306667,0.031748889,-0.057392222
-2.42715096,-0.2633004,9.82110492,-0.14,2.38,-2.45,1770370108,-0.002442222,0.041517778,-0.042738889
-2.41278912,-0.24175764,9.84025404,3.08,2.87,-4.13,1770370108,0.053728889,0.050065556,-0.072045556
-2.47502376,-0.18909756,9.91685052,2.59,4.41,-3.15,1770370108,0.045181111,0.07693,-0.05495
-2.49896016,-0.1436184,9.96472332,0.77,4.69,-3.5,1770370108,0.013432222,0.081814444,-0.061055556
-2.56358844,-0.13883112,10.00780884,2.59,4.41,-2.94,1770370108,0.045181111,0.07693,-0.051286667
-2.62342944,-0.13643748,9.95514876,-0.77,4.06,-2.94,1770370108,-0.013432222,0.070824444,-0.051286667
-2.69763228,-0.17473572,9.84025404,2.31,3.5,-2.8,1770370108,0.040296667,0.061055556,-0.048844444
-2.73832416,-0.1914912,9.75647664,1.47,1.47,-3.71,1770370108,0.025643333,0.025643333,-0.064718889
-2.75986692,-0.19388484,9.70142292,-0.77,1.61,-4.27,1770370108,-0.013432222,0.028085556,-0.074487778
-2.73593052,-0.14840568,9.66791196,0,0.49,-2.38,1770370108,0,0.008547778,-0.041517778
-2.69763228,-0.12686292,9.59610276,-1.47,0.49,-4.41,1770370108,-0.025643333,0.008547778,-0.07693
-2.64018492,-0.10292652,9.61764552,1.12,0.98,-6.16,1770370108,0.019537778,0.017095556,-0.107457778
-2.62821672,-0.05744736,9.6463692,0.42,0.7,-4.41,1770370108,0.007326667,0.012211111,-0.07693
-2.5970994,-0.04547916,9.62003916,2.03,-0.63,-1.96,1770370108,0.035412222,-0.01099,-0.034191111
-2.56598208,0.01675548,9.6463692,-2.8,0.42,-2.73,1770370108,-0.048844444,0.007326667,-0.047623333
-2.513322,0.04547916,9.66551832,-1.82,-0.14,-1.61,1770370108,-0.031748889,-0.002442222,-0.028085556
-2.51571564,0.07899012,9.73732752,1.47,2.31,-4.2,1770370108,0.025643333,0.040296667,-0.073266667
-2.5492266,0.1077138,9.74929572,0.42,2.66,-2.45,1770370108,0.007326667,0.046402222,-0.042738889
-2.57555664,0.0957456,9.70142292,0.56,2.94,-5.74,1770370108,0.009768889,0.051286667,-0.100131111
-2.62821672,0.06702192,9.70381656,0.77,3.71,0.07,1770370108,0.013432222,0.064718889,0.001221111
-2.6808768,0.05505372,9.66073104,-0.98,4.69,-4.83,1770370108,-0.017095556,0.081814444,-0.084256667
-2.7287496,0.01914912,9.69663564,2.45,4.41,-2.73,1770370108,0.042738889,0.07693,-0.047623333
-2.75986692,-0.0239364,9.65594376,1.47,2.94,-5.95,1770370108,0.025643333,0.051286667,-0.103794444
-2.74550508,-0.04547916,9.69663564,0.35,3.43,-3.5,1770370108,0.006105556,0.059834444,-0.061055556
-2.80534608,-0.08617104,9.76844484,2.66,2.03,-0.7,1770370108,0.046402222,0.035412222,-0.012211111
-2.80295244,-0.0718092,9.82110492,1.89,1.96,-4.62,1770370108,0.03297,0.034191111,-0.080593333
-2.76944148,-0.0957456,9.84743496,0.56,1.19,-6.65,1770370108,0.009768889,0.020758889,-0.116005556
-2.75986692,-0.11250108,9.8857332,1.47,-0.14,-4.97,1770370108,0.025643333,-0.002442222,-0.086698889
-2.74550508,-0.10532016,9.88094592,0.63,-0.28,-2.38,1770370108,0.01099,-0.004884444,-0.041517778
-2.76226056,-0.14122476,9.90009504,1.68,-0.42,-4.62,1770370108,0.029306667,-0.007326667,-0.080593333
-2.72156868,-0.17473572,9.87615864,-1.89,0.49,-2.94,1770370108,-0.03297,0.008547778,-0.051286667
-2.73593052,-0.18670392,9.84264768,2.66,0.28,-5.04,1770370108,0.046402222,0.004884444,-0.08792
-2.7287496,-0.18909756,9.80434944,-0.14,-1.4,-4.06,1770370108,-0.002442222,-0.024422222,-0.070824444
-2.72156868,-0.18909756,9.82828584,-3.08,-2.1,-6.09,1770370108,-0.053728889,-0.036633333,-0.106236667
-2.67608952,-0.18431028,9.83307312,-0.35,-2.73,-1.05,1770370108,-0.006105556,-0.047623333,-0.018316667
-2.68566408,-0.1914912,9.84743496,-1.33,-0.07,-6.58,1770370108,-0.023201111,-0.001221111,-0.114784444
-2.64018492,-0.17234208,9.85222224,0.98,-1.26,-2.52,1770370108,0.017095556,-0.02198,-0.04396
-2.63779128,-0.179523,9.85461588,0.21,-1.61,-4.06,1770370108,0.003663333,-0.028085556,-0.070824444
-2.61146124,-0.16516116,9.87855228,0,-2.59,-2.59,1770370108,0,-0.045181111,-0.045181111
-2.59231212,-0.12207564,9.93839328,0.98,-1.4,-1.96,1770370108,0.017095556,-0.024422222,-0.034191111
-2.62821672,-0.0837774,9.95993604,-1.89,-0.49,-3.15,1770370108,-0.03297,-0.008547778,-0.05495
-2.6569404,-0.01914912,9.89291412,2.03,-1.19,-4.06,1770370108,0.035412222,-0.020758889,-0.070824444
-2.69523864,0.01436184,9.78759396,-1.33,-0.84,-2.52,1770370108,-0.023201111,-0.014653333,-0.04396
-2.74311144,0.02872368,9.7062102,-0.7,-0.63,-2.03,1770370108,-0.012211111,-0.01099,-0.035412222
-2.71917504,0.05266008,9.64397556,-0.56,-1.54,-2.38,1770370108,-0.009768889,-0.026864444,-0.041517778
-2.6449722,0.04308552,9.5984964,-3.22,-1.26,-2.45,1770370108,-0.056171111,-0.02198,-0.042738889
-2.6090676,0.03351096,9.5625918,0,-2.17,-1.89,1770370108,0,-0.037854444,-0.03297
-2.56358844,-0.01914912,9.5625918,-2.03,-2.73,-0.14,1770370108,-0.035412222,-0.047623333,-0.002442222
-2.53965204,-0.0239364,9.59131548,-2.31,-1.61,-0.35,1770370108,-0.040296667,-0.028085556,-0.006105556
-2.49417288,-0.02633004,9.65594376,-0.7,-0.07,-0.49,1770370108,-0.012211111,-0.001221111,-0.008547778
-2.48459832,0.00478728,9.67509288,0.21,1.12,0.77,1770370108,0.003663333,0.019537778,0.013432222
-2.49896016,0.0359046,9.71339112,0.21,3.71,0.56,1770370108,0.003663333,0.064718889,0.009768889
-2.53247112,0.00239364,9.71339112,2.31,4.13,0.35,1770370108,0.040296667,0.072045556,0.006105556
-2.60428032,-0.0359046,9.77083848,-0.21,5.18,-1.82,1770370108,-0.003663333,0.090362222,-0.031748889
-2.68805772,-0.11010744,9.80913672,2.87,5.46,-0.21,1770370108,0.050065556,0.095246667,-0.003663333
-2.79337788,-0.11728836,9.78041304,0.35,4.27,1.4,1770370108,0.006105556,0.074487778,0.024422222
-2.88912348,-0.1436184,9.74929572,3.78,4.27,-2.8,1770370108,0.06594,0.074487778,-0.048844444
-2.92502808,-0.17473572,9.80674308,2.24,2.38,-1.05,1770370108,0.039075556,0.041517778,-0.018316667
-2.98726272,-0.18909756,9.78759396,0.63,2.17,-2.24,1770370108,0.01099,0.037854444,-0.039075556
-3.03752916,-0.18191664,9.85940316,2.45,0.7,-1.61,1770370108,0.042738889,0.012211111,-0.028085556
-3.00641184,-0.15319296,9.86419044,-0.98,-1.12,-2.1,1770370108,-0.017095556,-0.019537778,-0.036633333
-3.0040182,-0.18191664,9.83307312,0.21,-1.19,-3.08,1770370108,0.003663333,-0.020758889,-0.053728889
-2.97290088,-0.18909756,9.79477488,-0.14,-1.96,-2.24,1770370108,-0.002442222,-0.034191111,-0.039075556
-2.91066624,-0.20585304,9.7181784,-3.01,-2.17,-2.8,1770370108,-0.052507778,-0.037854444,-0.048844444
-2.87954892,-0.18431028,9.64876284,-0.7,-3.85,-1.26,1770370108,-0.012211111,-0.067161111,-0.02198
-2.812527,-0.20585304,9.62961372,-0.21,-4.48,-2.73,1770370108,-0.003663333,-0.078151111,-0.047623333
-2.75747328,-0.17712936,9.70142292,-0.07,-3.64,0.21,1770370108,-0.001221111,-0.063497778,0.003663333
-2.71438776,-0.12446928,9.65355012,0.07,-4.2,-6.09,1770370108,0.001221111,-0.073266667,-0.106236667
-2.6808768,-0.10292652,9.73732752,-0.49,-3.64,-1.26,1770370109,-0.008547778,-0.063497778,-0.02198
-2.65454676,-0.13883112,9.68466744,1.75,-3.5,-5.04,1770370109,0.030527778,-0.061055556,-0.08792
-2.64736584,-0.11728836,9.70860384,-2.03,-1.61,0.42,1770370109,-0.035412222,-0.028085556,0.007326667
-2.59949304,-0.0718092,9.74450844,3.78,-1.82,-1.05,1770370109,0.06594,-0.031748889,-0.018316667
-2.58273756,-0.08856468,9.74450844,1.82,-1.82,-2.17,1770370109,0.031748889,-0.031748889,-0.037854444
-2.58034392,-0.08856468,9.75647664,-0.7,-0.49,-1.68,1770370109,-0.012211111,-0.008547778,-0.029306667
-2.5851312,-0.05505372,9.7181784,3.08,-0.49,-1.05,1770370109,0.053728889,-0.008547778,-0.018316667
-2.61146124,-0.059841,9.75647664,0,0.28,-1.12,1770370109,0,0.004884444,-0.019537778
-2.64975948,-0.059841,9.73972116,3.22,0.28,-3.15,1770370109,0.056171111,0.004884444,-0.05495
-2.66172768,-0.07659648,9.7899876,-0.63,1.05,-1.68,1770370109,-0.01099,0.018316667,-0.029306667
-2.6808768,-0.05744736,9.81871128,-0.14,1.26,-4.76,1770370109,-0.002442222,0.02198,-0.083035556
-2.70241956,-0.05505372,9.84025404,2.45,0.28,0.21,1770370109,0.042738889,0.004884444,0.003663333
-2.72635596,-0.03829824,9.83067948,-0.56,1.47,0.84,1770370109,-0.009768889,0.025643333,0.014653333
-2.752686,-0.05266008,9.78280668,2.66,-0.63,-0.84,1770370109,0.046402222,-0.01099,-0.014653333
-2.7287496,-0.03351096,9.73972116,0.98,-2.1,-2.17,1770370109,0.017095556,-0.036633333,-0.037854444
-2.7167814,-0.04069188,9.74450844,0.56,-1.4,-2.52,1770370109,0.009768889,-0.024422222,-0.04396
-2.7167814,-0.0478728,9.694242,1.75,-2.03,-0.91,1770370109,0.030527778,-0.035412222,-0.015874444
-2.7048132,-0.00478728,9.66551832,0.77,-1.54,-2.94,1770370109,0.013432222,-0.026864444,-0.051286667
-2.73114324,-0.03351096,9.66791196,3.08,-1.05,1.33,1770370109,0.053728889,-0.018316667,0.023201111
-2.67608952,-0.04069188,9.64158192,1.26,-0.42,-2.38,1770370109,0.02198,-0.007326667,-0.041517778
-2.69523864,-0.06462828,9.64397556,-0.49,-1.96,-0.28,1770370109,-0.008547778,-0.034191111,-0.004884444
-2.70720684,-0.0478728,9.66791196,1.54,-1.26,-2.03,1770370109,0.026864444,-0.02198,-0.035412222
-2.70720684,-0.04308552,9.7421148,-0.91,-0.07,-1.12,1770370109,-0.015874444,-0.001221111,-0.019537778
-2.66412132,-0.04308552,9.76126392,1.68,-0.07,-4.41,1770370109,0.029306667,-0.001221111,-0.07693
-2.70720684,-0.03829824,9.8019558,1.75,-0.49,-1.12,1770370109,0.030527778,-0.008547778,-0.019537778
-2.73593052,-0.0359046,9.80434944,0.98,-0.21,-3.99,1770370109,0.017095556,-0.003663333,-0.069603333
-2.73114324,-0.06223464,9.78280668,2.52,-0.7,0.56,1770370109,0.04396,-0.012211111,0.009768889
-2.71917504,-0.0718092,9.80913672,-0.7,0.7,-3.64,1770370109,-0.012211111,0.012211111,-0.063497778
-2.74550508,-0.06223464,9.82110492,2.31,-0.91,-1.96,1770370109,0.040296667,-0.015874444,-0.034191111
-2.752686,-0.11489472,9.79238124,1.82,-0.7,-2.45,1770370109,0.031748889,-0.012211111,-0.042738889
-2.7766224,-0.11728836,9.74929572,0.98,-0.98,-3.08,1770370109,0.017095556,-0.017095556,-0.053728889
-2.7766224,-0.12686292,9.7421148,2.24,-0.7,1.19,1770370109,0.039075556,-0.012211111,0.020758889
-2.75747328,-0.11489472,9.73493388,-0.21,-1.05,-3.43,1770370109,-0.003663333,-0.018316667,-0.059834444
-2.7407178,-0.0957456,9.7780194,2.8,-1.05,-0.84,1770370109,0.048844444,-0.018316667,-0.014653333
-2.76226056,-0.11010744,9.74690208,0.98,-2.8,-3.85,1770370109,0.017095556,-0.048844444,-0.067161111
-2.72156868,-0.0957456,9.76844484,-1.68,-2.03,-1.33,1770370109,-0.029306667,-0.035412222,-0.023201111
-2.70720684,-0.09335196,9.77083848,0.63,-1.26,-1.82,1770370109,0.01099,-0.02198,-0.031748889
-2.70241956,-0.07899012,9.78041304,-0.21,-0.49,0.07,1770370109,-0.003663333,-0.008547778,0.001221111
-2.73353688,-0.10053288,9.74450844,2.1,-1.82,-3.29,1770370109,0.036633333,-0.031748889,-0.057392222
-2.72396232,-0.06941556,9.73732752,0.42,-2.17,-0.91,1770370109,0.007326667,-0.037854444,-0.015874444
-2.74550508,-0.05505372,9.76126392,0,-1.26,-1.47,1770370109,0,-0.02198,-0.025643333
-2.76226056,-0.059841,9.75168936,3.01,-0.49,-0.7,1770370109,0.052507778,-0.008547778,-0.012211111
-2.77422876,-0.02633004,9.75168936,0.77,-0.42,-2.38,1770370109,0.013432222,-0.007326667,-0.041517778
-2.752686,-0.02633004,9.73254024,1.89,-1.4,-1.82,1770370109,0.03297,-0.024422222,-0.031748889
-2.75986692,0.0239364,9.74690208,0.98,-1.75,-1.89,1770370109,0.017095556,-0.030527778,-0.03297
-2.74789872,-0.00957456,9.72535932,-1.89,-1.96,-3.71,1770370109,-0.03297,-0.034191111,-0.064718889
-2.7167814,0.00957456,9.68466744,0.91,-2.17,-1.96,1770370109,0.015874444,-0.037854444,-0.034191111
-2.71438776,-0.0119682,9.6822738,-0.56,-0.7,-2.17,1770370109,-0.009768889,-0.012211111,-0.037854444
-2.67608952,-0.00957456,9.69184836,-0.14,-2.03,-3.15,1770370109,-0.002442222,-0.035412222,-0.05495
-2.67369588,-0.05026644,9.69902928,0.35,-1.4,-1.96,1770370109,0.006105556,-0.024422222,-0.034191111
-2.6569404,-0.03829824,9.7421148,-1.89,-0.98,-3.92,1770370109,-0.03297,-0.017095556,-0.068382222
-2.64736584,-0.059841,9.75647664,1.12,0.49,-1.05,1770370109,0.019537778,0.008547778,-0.018316667
-2.64257856,-0.1077138,9.74690208,-1.33,-1.47,0.42,1770370109,-0.023201111,-0.025643333,0.007326667
-2.6808768,-0.13404384,9.71099748,0.98,-0.98,-1.96,1770370109,0.017095556,-0.017095556,-0.034191111
-2.7048132,-0.12207564,9.68706108,0.56,-1.61,-1.96,1770370109,0.009768889,-0.028085556,-0.034191111
-2.71438776,-0.12925656,9.71339112,1.47,-0.14,-2.03,1770370109,0.025643333,-0.002442222,-0.035412222
-2.7167814,-0.10292652,9.72057204,2.24,-0.28,-1.61,1770370109,0.039075556,-0.004884444,-0.028085556
-2.71199412,-0.10053288,9.754083,1.19,-0.42,0,1770370109,0.020758889,-0.007326667,0
-2.70960048,-0.1077138,9.7660512,0.56,-0.49,-2.38,1770370109,0.009768889,-0.008547778,-0.041517778
-2.71199412,-0.11489472,9.74690208,0.7,-1.4,-2.17,1770370109,0.012211111,-0.024422222,-0.037854444
-2.72156868,-0.12446928,9.74450844,-0.56,-0.63,-1.05,1770370109,-0.009768889,-0.01099,-0.018316667
-2.71199412,-0.13404384,9.72775296,0.35,-0.28,-0.07,1770370109,0.006105556,-0.004884444,-0.001221111
-2.68327044,-0.11010744,9.69184836,-0.77,-0.28,-3.57,1770370109,-0.013432222,-0.004884444,-0.062276667
-2.7287496,-0.11250108,9.72775296,-0.42,-1.96,-3.5,1770370109,-0.007326667,-0.034191111,-0.061055556
-2.71199412,-0.07659648,9.73254024,0.42,-0.28,-2.17,1770370109,0.007326667,-0.004884444,-0.037854444
-2.7407178,-0.119682,9.78759396,0.42,-0.14,-2.73,1770370109,0.007326667,-0.002442222,-0.047623333
-2.7646542,-0.0957456,9.83067948,1.33,0.21,-2.94,1770370109,0.023201111,0.003663333,-0.051286667
-2.75029236,-0.07420284,9.83307312,-0.7,0.28,-0.21,1770370109,-0.012211111,0.004884444,-0.003663333
-2.79337788,-0.10532016,9.82349856,3.36,0.28,-3.5,1770370109,0.058613333,0.004884444,-0.061055556
-2.80773972,-0.06462828,9.80434944,0.63,-1.05,-0.49,1770370109,0.01099,-0.018316667,-0.008547778
-2.79816516,-0.02872368,9.73493388,0,-2.1,2.38,1770370109,0,-0.036633333,0.041517778
-2.75507964,0.02154276,9.74929572,2.24,-2.1,-0.21,1770370109,0.039075556,-0.036633333,-0.003663333
-2.74789872,0.01436184,9.76844484,-0.77,-0.91,-1.82,1770370109,-0.013432222,-0.015874444,-0.031748889
-2.72156868,0.03351096,9.75168936,3.64,-2.45,-1.61,1770370109,0.063497778,-0.042738889,-0.028085556
-2.73593052,0.07420284,9.70142292,1.12,-1.47,0,1770370109,0.019537778,-0.025643333,0
-2.69763228,0.0119682,9.65355012,-1.12,-1.82,-2.03,1770370109,-0.019537778,-0.031748889,-0.035412222
-2.72635596,-0.00478728,9.62961372,0.14,-2.17,0.42,1770370109,0.002442222,-0.037854444,0.007326667
-2.7048132,-0.00478728,9.6583374,-1.12,-0.14,0.07,1770370109,-0.019537778,-0.002442222,0.001221111
-2.68327044,-0.04308552,9.7301466,0.63,-1.82,-2.59,1770370109,0.01099,-0.031748889,-0.045181111
-2.69045136,-0.01436184,9.74690208,2.8,-1.26,-0.35,1770370109,0.048844444,-0.02198,-0.006105556
-2.66172768,-0.0478728,9.74450844,0.84,-0.63,-1.05,1770370109,0.014653333,-0.01099,-0.018316667
-2.68566408,-0.03111732,9.72775296,1.89,-0.84,-0.21,1770370109,0.03297,-0.014653333,-0.003663333
-2.64975948,-0.07659648,9.7301466,-0.21,-0.98,-0.56,1770370109,-0.003663333,-0.017095556,-0.009768889
-2.66651496,-0.12446928,9.7062102,2.24,-0.98,-1.12,1770370109,0.039075556,-0.017095556,-0.019537778
-2.65454676,-0.12686292,9.66312468,0.07,-1.26,-2.38,1770370109,0.001221111,-0.02198,-0.041517778
-2.64975948,-0.1436184,9.69902928,-1.75,-0.7,-2.24,1770370109,-0.030527778,-0.012211111,-0.039075556
-2.66651496,-0.12925656,9.73493388,0.77,-1.96,-1.47,1770370109,0.013432222,-0.034191111,-0.025643333
-2.69045136,-0.13643748,9.754083,-0.98,-0.7,-2.73,1770370109,-0.017095556,-0.012211111,-0.047623333
-2.68566408,-0.11489472,9.77562576,-0.77,1.19,-1.47,1770370109,-0.013432222,0.020758889,-0.025643333
-2.7167814,-0.12925656,9.79477488,0.42,-0.42,-1.82,1770370109,0.007326667,-0.007326667,-0.031748889
-2.73114324,-0.08856468,9.81153036,-2.03,0.07,-2.38,1770370109,-0.035412222,0.001221111,-0.041517778
-2.75029236,-0.06702192,9.77562576,0.21,-0.7,0.28,1770370109,0.003663333,-0.012211111,0.004884444
-2.7407178,-0.0957456,9.754083,-2.24,-0.84,-1.47,1770370109,-0.039075556,-0.014653333,-0.025643333
-2.75507964,-0.0957456,9.7062102,0.91,-1.05,-2.38,1770370109,0.015874444,-0.018316667,-0.041517778
-2.76226056,-0.07420284,9.6583374,-0.7,-1.61,-3.71,1770370109,-0.012211111,-0.028085556,-0.064718889
-2.75986692,-0.07899012,9.66551832,0.56,-0.28,-2.94,1770370109,0.009768889,-0.004884444,-0.051286667
-2.72635596,-0.1077138,9.6463692,1.89,-1.47,-2.24,1770370109,0.03297,-0.025643333,-0.039075556
-2.73832416,-0.1436184,9.71339112,-1.33,-0.98,-2.03,1770370109,-0.023201111,-0.017095556,-0.035412222
-2.70960048,-0.14840568,9.7181784,1.96,0.14,-3.15,1770370109,0.034191111,0.002442222,-0.05495
-2.69523864,-0.18191664,9.75647664,0.14,-1.05,-3.64,1770370109,0.002442222,-0.018316667,-0.063497778
-2.7048132,-0.1555866,9.80434944,-0.91,-0.63,-3.08,1770370109,-0.015874444,-0.01099,-0.053728889
-2.70002592,-0.1914912,9.8258922,0.7,0.28,-0.7,1770370109,0.012211111,0.004884444,-0.012211111
-2.68805772,-0.1436184,9.83546676,-1.12,0.7,-4.55,1770370109,-0.019537778,0.012211111,-0.079372222
-2.74311144,-0.14122476,9.83307312,-0.98,0.63,-3.15,1770370109,-0.017095556,0.01099,-0.05495
-2.7407178,-0.15319296,9.7780194,-2.24,0.14,-2.45,1770370109,-0.039075556,0.002442222,-0.042738889
-2.74550508,-0.1316502,9.79956216,1.26,-0.84,-1.12,1770370109,0.02198,-0.014653333,-0.019537778
-2.73353688,-0.179523,9.754083,-0.91,-0.28,-3.08,1770370109,-0.015874444,-0.004884444,-0.053728889
-2.76704784,-0.14840568,9.78041304,0.35,-0.77,-2.17,1770370109,0.006105556,-0.013432222,-0.037854444
-2.77901604,-0.13643748,9.73254024,0.42,-1.26,-0.91,1770370109,0.007326667,-0.02198,-0.015874444
-2.77901604,-0.13404384,9.7181784,1.12,-1.4,-3.85,1770370109,0.019537778,-0.024422222,-0.067161111
-2.80295244,-0.10532016,9.73732752,1.96,-0.14,-1.89,1770370109,0.034191111,-0.002442222,-0.03297
-2.77901604,-0.05744736,9.72775296,1.54,-0.42,-2.03,1770370109,0.026864444,-0.007326667,-0.035412222
-2.77422876,0.01436184,9.78280668,-0.35,-0.77,-1.96,1770370109,-0.006105556,-0.013432222,-0.034191111
-2.77422876,0.06941556,9.76365756,1.4,0.07,-2.73,1770370109,0.024422222,0.001221111,-0.047623333
-2.77183512,0.0837774,9.79477488,-0.91,-0.84,-0.7,1770370109,-0.015874444,-0.014653333,-0.012211111
-2.7287496,0.10532016,9.78041304,-1.68,-0.7,-2.31,1770370109,-0.029306667,-0.012211111,-0.040296667
-2.73832416,0.05744736,9.74450844,-0.14,-1.96,-1.68,1770370109,-0.002442222,-0.034191111,-0.029306667
-2.72635596,0.05744736,9.75168936,-1.19,-2.38,-4.2,1770370109,-0.020758889,-0.041517778,-0.073266667
-2.70002592,0.05744736,9.6822738,-0.91,-2.38,-2.59,1770370109,-0.015874444,-0.041517778,-0.045181111
-2.70241956,0.03111732,9.67988016,-0.7,-2.03,-3.15,1770370109,-0.012211111,-0.035412222,-0.05495
-2.68566408,-0.0119682,9.68466744,1.26,-1.96,-2.73,1770370109,0.02198,-0.034191111,-0.047623333
-2.68327044,-0.04308552,9.64876284,-0.77,-1.96,-3.85,1770370109,-0.013432222,-0.034191111,-0.067161111
-2.64018492,-0.03111732,9.70381656,0.77,-1.75,-2.8,1770370109,0.013432222,-0.030527778,-0.048844444
-2.65933404,-0.0359046,9.70860384,0,-0.98,-0.98,1770370109,0,-0.017095556,-0.017095556
-2.63779128,-0.01914912,9.68466744,2.03,-1.75,-5.53,1770370109,0.035412222,-0.030527778,-0.096467778
-2.63061036,-0.06223464,9.69663564,1.89,-1.4,-1.96,1770370110,0.03297,-0.024422222,-0.034191111
-2.62342944,-0.02633004,9.694242,1.12,-1.4,-3.36,1770370110,0.019537778,-0.024422222,-0.058613333
-2.61146124,-0.09335196,9.67988016,-0.14,-1.4,-3.92,1770370110,-0.002442222,-0.024422222,-0.068382222
-2.58034392,-0.05505372,9.71578476,1.68,-1.75,-4.2,1770370110,0.029306667,-0.030527778,-0.073266667
-2.55880116,-0.10532016,9.68945472,0.98,0.63,-2.03,1770370110,0.017095556,0.01099,-0.035412222
-2.60667396,-0.12207564,9.79477488,-0.07,0.49,-2.8,1770370110,-0.001221111,0.008547778,-0.048844444
-2.61624852,-0.11250108,9.88094592,0.35,1.19,-2.73,1770370110,0.006105556,0.020758889,-0.047623333
-2.61385488,-0.10292652,9.87615864,-0.42,1.61,-0.49,1770370110,-0.007326667,0.028085556,-0.008547778
-2.70002592,-0.1555866,9.83307312,-0.7,1.26,-3.43,1770370110,-0.012211111,0.02198,-0.059834444
-2.7407178,-0.1555866,9.76126392,-1.89,1.47,-2.45,1770370110,-0.03297,0.025643333,-0.042738889
-2.7885906,-0.19867212,9.73254024,0.42,0.77,-3.08,1770370110,0.007326667,0.013432222,-0.053728889
-2.8244952,-0.16994844,9.72535932,-0.77,1.54,-3.5,1770370110,-0.013432222,0.026864444,-0.061055556
-2.84125068,-0.16276752,9.67988016,0.21,0.49,-3.15,1770370110,0.003663333,0.008547778,-0.05495
-2.83167612,-0.1555866,9.67269924,0.56,0.77,-2.59,1770370110,0.009768889,0.013432222,-0.045181111
-2.80534608,-0.14840568,9.68945472,0.7,-0.07,-4.41,1770370110,0.012211111,-0.001221111,-0.07693
-2.81492064,-0.1316502,9.68466744,0.35,-0.63,-3.85,1770370110,0.006105556,-0.01099,-0.067161111
-2.81013336,-0.12686292,9.71339112,1.12,-0.14,-2.8,1770370110,0.019537778,-0.002442222,-0.048844444
-2.76226056,-0.10292652,9.72775296,1.68,-1.47,-4.41,1770370110,0.029306667,-0.025643333,-0.07693
-2.75986692,-0.10292652,9.72535932,0.91,-0.84,-3.71,1770370110,0.015874444,-0.014653333,-0.064718889
-2.75747328,-0.10053288,9.72535932,0.63,-1.75,-3.99,1770370110,0.01099,-0.030527778,-0.069603333
-2.71917504,-0.12207564,9.72775296,0.98,-1.26,-2.94,1770370110,0.017095556,-0.02198,-0.051286667
-2.70002592,-0.0718092,9.75647664,1.12,-2.17,-3.5,1770370110,0.019537778,-0.037854444,-0.061055556
-2.7287496,-0.08856468,9.82110492,0.7,-0.98,-2.8,1770370110,0.012211111,-0.017095556,-0.048844444
-2.72396232,-0.09095832,9.76126392,0.91,-2.17,-4.55,1770370110,0.015874444,-0.037854444,-0.079372222
-2.752686,-0.03111732,9.7301466,0.77,-1.96,-3.64,1770370110,0.013432222,-0.034191111,-0.063497778
-2.72156868,-0.07899012,9.73732752,0.63,-2.03,-2.8,1770370110,0.01099,-0.035412222,-0.048844444
-2.73353688,-0.06223464,9.7301466,-0.42,-2.38,-3.15,1770370110,-0.007326667,-0.041517778,-0.05495
-2.69763228,-0.00478728,9.79238124,-0.42,-0.98,-2.59,1770370110,-0.007326667,-0.017095556,-0.045181111
-2.68327044,0.03111732,9.76844484,-0.42,-1.4,-4.62,1770370110,-0.007326667,-0.024422222,-0.080593333
-2.68566408,0.0119682,9.8019558,0.91,-1.4,-2.38,1770370110,0.015874444,-0.024422222,-0.041517778
-2.7048132,0,9.77562576,-1.68,-1.19,-2.73,1770370110,-0.029306667,-0.020758889,-0.047623333
-2.73114324,-0.02633004,9.80674308,0.21,-1.26,-3.01,1770370110,0.003663333,-0.02198,-0.052507778
-2.70241956,-0.04069188,9.78041304,-0.98,-1.61,-3.64,1770370110,-0.017095556,-0.028085556,-0.063497778
-2.72156868,-0.06702192,9.78041304,0.35,-2.87,-2.59,1770370110,0.006105556,-0.050065556,-0.045181111
-2.70960048,-0.119682,9.77562576,1.26,-2.8,-4.48,1770370110,0.02198,-0.048844444,-0.078151111
-2.6808768,-0.08856468,9.81153036,1.05,-2.94,-3.15,1770370110,0.018316667,-0.051286667,-0.05495
-2.67848316,-0.0837774,9.80913672,1.75,-3.85,-2.38,1770370110,0.030527778,-0.067161111,-0.041517778
-2.66172768,-0.00718092,9.82110492,0,-2.52,-4.27,1770370110,0,-0.04396,-0.074487778
-2.61624852,-0.0119682,9.79477488,2.03,-2.59,-2.24,1770370110,0.035412222,-0.045181111,-0.039075556
-2.61146124,0.00478728,9.74450844,0.14,-1.96,-2.52,1770370110,0.002442222,-0.034191111,-0.04396
-2.573163,0.01675548,9.70142292,-0.42,-1.61,-2.94,1770370110,-0.007326667,-0.028085556,-0.051286667
-2.55640752,0.03111732,9.60089004,-1.82,-1.82,-3.15,1770370110,-0.031748889,-0.031748889,-0.05495
-2.55880116,-0.0119682,9.54822996,-1.19,-0.28,-2.17,1770370110,-0.020758889,-0.004884444,-0.037854444
-2.53247112,-0.00718092,9.5506236,-1.68,0.42,-3.15,1770370110,-0.029306667,0.007326667,-0.05495
-2.54443932,-0.03829824,9.55301724,0.14,1.4,-0.49,1770370110,0.002442222,0.024422222,-0.008547778
-2.60188668,-0.07899012,9.53386812,-0.56,-0.28,-2.8,1770370110,-0.009768889,-0.004884444,-0.048844444
-2.58991848,-0.10053288,9.55301724,-0.35,0.42,-0.35,1770370110,-0.006105556,0.007326667,-0.006105556
-2.6090676,-0.0957456,9.6224328,0.49,1.19,-1.47,1770370110,0.008547778,0.020758889,-0.025643333
-2.67130224,-0.08138376,9.69663564,1.54,1.96,-1.12,1770370110,0.026864444,0.034191111,-0.019537778
-2.71438776,-0.11728836,9.754083,0.56,4.41,0.07,1770370110,0.009768889,0.07693,0.001221111
-2.83406976,-0.09335196,9.83067948,0.98,4.41,-2.03,1770370110,0.017095556,0.07693,-0.035412222
-2.95135812,-0.03351096,10.0293516,0,6.02,-0.91,1770370110,0,0.105015556,-0.015874444
-3.0997638,0.03111732,10.19930004,-3.15,4.76,-1.19,1770370110,-0.05495,0.083035556,-0.020758889
-3.2553504,0.12207564,10.39318488,-4.83,3.64,1.33,1770370110,-0.084256667,0.063497778,0.023201111
-3.40614972,0.22021488,10.33813116,-8.47,3.85,-0.35,1770370110,-0.147754444,0.067161111,-0.006105556
-3.5186508,0.28484316,10.08440532,-13.23,2.87,0.77,1770370110,-0.23079,0.050065556,0.013432222
-3.51386352,0.31356684,10.1011608,-16.799999,4.2,2.24,1770370110,-0.293066649,0.073266667,0.039075556
-3.3750324,0.17712936,10.4482386,-21.209999,3.5,2.1,1770370110,-0.369996649,0.061055556,0.036633333
-3.22902036,-0.15319296,10.12030992,-19.879999,-2.03,7.84,1770370110,-0.346795538,-0.035412222,0.136764444
-3.3750324,-0.478728,9.26099316,-18.200001,-12.81,10.99,1770370110,-0.317488906,-0.223463333,0.191714444
-3.46838436,-0.56729268,8.42800644,-12.95,-22.049999,18.969999,1770370110,-0.225905556,-0.384649983,0.330921094
-3.42529884,-0.43564248,7.8750756,-8.12,-28.91,20.860001,1770370110,-0.141648889,-0.504318889,0.363891129
-3.16199844,-0.16994844,7.93252296,-4.83,-33.599998,25.620001,1770370110,-0.084256667,-0.586133298,0.446926684
-2.83406976,0.39255696,8.35619724,-2.87,-33.040001,28.280001,1770370110,-0.050065556,-0.576364462,0.493328906
-2.55162024,1.01969064,8.73199872,-6.58,-30.17,29.82,1770370110,-0.114784444,-0.526298889,0.520193333
-2.33619264,1.55347236,8.9282772,-12.88,-28.280001,30.24,1770370110,-0.224684444,-0.493328906,0.52752
-2.12315868,1.91969928,9.0240228,-20.58,-24.57,30.52,1770370110,-0.359006667,-0.42861,0.532404444
-1.84070916,2.14948872,9.275355,-24.219999,-22.120001,28.07,1770370110,-0.422504427,-0.385871129,0.489665556
-1.55347236,2.4654492,9.64397556,-26.879999,-19.389999,26.459999,1770370110,-0.468906649,-0.33824776,0.461579983
-1.26384192,2.7885906,10.04371344,-26.530001,-19.530001,25.129999,1770370110,-0.462801129,-0.340690017,0.438378871
-0.89043408,3.10933836,10.31180112,-26.459999,-19.809999,23.379999,1770370110,-0.461579983,-0.345574427,0.407851094
-0.52899444,3.26971224,10.3644612,-27.09,-21.49,23.24,1770370110,-0.47257,-0.374881111,0.405408889
-0.18909756,3.30801048,10.4243022,-26.110001,-20.02,25.48,1770370110,-0.455474462,-0.349237778,0.444484444
-0.02154276,3.28646772,10.50568596,-25.27,-16.73,26.040001,1770370110,-0.440821111,-0.291845556,0.454253351
0.09335196,3.12848748,10.49371776,-26.32,-11.06,30.52,1770370110,-0.459137778,-0.192935556,0.532404444
0.0957456,2.86997436,10.40275944,-26.67,-1.61,30.66,1770370110,-0.465243333,-0.028085556,0.534846667
-0.0478728,2.453481,10.2567474,-24.85,10.64,32.619999,1770370110,-0.433494444,0.185608889,0.56903776
-0.24654492,1.81677276,10.06286256,-23.24,23.17,32.549999,1770370110,-0.405408889,0.404187778,0.567816649
-0.47394072,1.12979808,9.82349856,-15.54,38.150002,29.540001,1770370110,-0.271086667,0.66550559,0.515308906
-0.79947576,0.44761068,9.57695364,-9.45,50.330002,27.93,1770370110,-0.16485,0.877978924,0.487223333
-1.11782988,0.07899012,9.395037,-2.8,56.560001,22.540001,1770370110,-0.048844444,0.986657795,0.393197795
-1.48645044,0.00239364,9.38067516,5.18,62.09,19.879999,1770370110,0.090362222,1.083125556,0.346795538
-1.87661376,-0.00957456,9.50514444,8.12,62.790001,14,1770370110,0.141648889,1.095336684,0.244222222
-2.20932972,0.0359046,9.51711264,8.68,59.779999,10.08,1770370110,0.151417778,1.042828871,0.17584
-2.48459832,0.08138376,9.38067516,9.1,54.880001,6.37,1770370110,0.158744444,0.957351129,0.111121111
-2.65454676,0.06941556,9.25381224,8.12,47.25,1.12,1770370110,0.141648889,0.82425,0.019537778
-2.6569404,0.059841,9.24902496,10.01,40.040001,-1.05,1770370110,0.174618889,0.698475573,-0.018316667
-2.56598208,0.00478728,9.2992914,8.12,35.139999,-5.39,1770370110,0.141648889,0.61299776,-0.094025556
-2.41997004,-0.09813924,9.52189992,10.92,31.639999,-7.28,1770370110,0.190493333,0.551942205,-0.126995556
-2.2500216,-0.20824668,9.76844484,10.99,32.48,-9.94,1770370110,0.191714444,0.566595556,-0.173397778
-2.13273324,-0.31596048,10.10355444,14.21,34.369999,-8.33,1770370110,0.247885556,0.599565538,-0.145312222
-2.13512688,-0.32074776,10.38600396,15.61,38.709999,-11.34,1770370110,0.272307778,0.675274427,-0.19782
-2.25720252,-0.25611948,10.51047324,16.24,42.349998,-9.66,1770370110,0.283297778,0.738772187,-0.168513333
-2.4654492,-0.17712936,10.5200478,19.25,45.990002,-10.92,1770370110,0.335805556,0.802270035,-0.190493333
-2.692845,0,10.62536796,19.110001,50.610001,-10.92,1770370110,0.333363351,0.882863351,-0.190493333
-3.00880548,0.31835412,10.69717716,19.879999,51.240002,-11.97,1770370110,0.346795538,0.893853368,-0.20881
-3.34870236,0.72287928,10.59425064,19.32,50.119999,-13.02,1770370110,0.337026667,0.874315538,-0.227126667
-3.63115188,1.1609154,10.27589652,21.98,47.459999,-13.3,1770370110,0.383428889,0.827913316,-0.232011111
-3.89205864,1.33804476,10.00062792,27.299999,41.299999,-11.34,1770370110,0.476233316,0.720455538,-0.19782
-4.17450816,1.39309848,9.71578476,32.200001,35.490002,-8.12,1770370110,0.561711129,0.619103368,-0.141648889
-4.41147852,1.54868508,9.28253592,38.080002,28.559999,-9.66,1770370110,0.664284479,0.498213316,-0.168513333
-4.62929976,1.80241092,8.8444998,42.98,23.24,-6.09,1770370110,0.749762222,0.405408889,-0.106236667
-4.85190828,2.0585304,8.82535068,45.43,18.690001,-8.82,1770370110,0.792501111,0.326036684,-0.15386
-5.07212316,2.33619264,9.15327936,47.389999,16.59,-8.33,1770370110,0.826692205,0.289403333,-0.145312222
-5.3378172,2.52289656,9.5027508,45.43,12.81,-9.24,1770370110,0.792501111,0.223463333,-0.161186667
-5.6968632,2.57795028,9.64397556,44.939999,7.7,-9.52,1770370110,0.783953316,0.134322222,-0.166071111
-5.99128092,2.73353688,9.42854796,45.290001,-0.14,-11.9,1770370110,0.790058906,-0.002442222,-0.207588889
-6.27612408,2.9441772,9.34237692,47.529999,-9.17,-11.34,1770370110,0.829134427,-0.159965556,-0.19782
-6.4747962,3.2194458,9.21312036,45.009998,-17.15,-12.53,1770370110,0.78517441,-0.299172222,-0.218578889
-6.56575452,3.42529884,8.85407436,45.080002,-27.02,-14.14,1770370110,0.78639559,-0.471348889,-0.246664444
-6.59687184,3.58806636,8.31311172,39.759998,-34.650002,-17.01,1770370110,0.693591076,-0.604450035,-0.29673
-6.67346832,3.77716392,7.95167208,33.389999,-40.669998,-18.690001,1770370110,0.582469983,-0.709465521,-0.326036684
-6.7380966,4.0572198,7.93970388,24.219999,-41.09,-26.530001,1770370110,0.422504427,-0.716792222,-0.462801129
-6.76442664,4.37796756,8.09768412,13.3,-42.209999,-36.049999,1770370110,0.232011111,-0.736329983,-0.628872205
-6.762033,4.5838206,8.1264078,-2.8,-43.68,-44.52,1770370110,-0.048844444,-0.761973333,-0.776626667
-6.73330932,4.63408704,8.018694,-16.309999,-46.900002,-50.189999,1770370110,-0.284518871,-0.818144479,-0.875536649
-6.57293544,4.60536336,7.92773568,-23.66,-50.68,-55.16,1770370110,-0.412735556,-0.884084444,-0.962235556
-6.29766684,4.56467148,8.02348128,-27.860001,-56.139999,-56.279999,1770370110,-0.48600224,-0.979331094,-0.981773316
-5.91707808,4.42584036,8.23890888,-28.77,-65.309998,-55.16,1770370110,-0.501876667,-1.139296632,-0.962235556
-5.36893452,4.17211452,8.46391104,-31.780001,-76.300003,-52.5,1770370110,-0.554384462,-1.331011163,-0.915833333
-4.80882276,3.78434484,8.56683756,-33.459999,-89.529999,-47.529999,1770370110,-0.583691094,-1.561801094,-0.829134427
-4.19605092,3.10933836,8.5093902,-32.689999,-102.760002,-42.349998,1770370110,-0.570258871,-1.792591146,-0.738772187
-3.50907624,2.38885272,8.497422,-28.77,-115.080002,-36.82,1770370110,-0.501876667,-2.007506702,-0.642304444
-2.79098424,1.69709076,8.7487542,-22.33,-122.849998,-31.15,1770370110,-0.389534444,-2.143049965,-0.543394444
-2.08725408,1.25426736,9.10061928,-13.23,-126.489998,-27.02,1770370110,-0.23079,-2.206547743,-0.471348889
-1.4601204,0.51941988,9.52429356,-7.42,-126.07,-24.639999,1770370111,-0.129437778,-2.199221111,-0.429831094
-0.85692312,0.02633004,10.0054152,0.7,-119.07,-24.92,1770370111,0.012211111,-2.07711,-0.434715556
-0.18191664,-0.31596048,10.651698,8.54,-110.389999,-27.51,1770370111,0.148975556,-1.925692205,-0.479896667
0.53617536,-1.05798888,11.51101476,13.86,-100.169998,-37.52,1770370111,0.24178,-1.747409965,-0.654515556
1.23990552,-1.42660944,12.20517036,18.129999,-89.18,-43.959999,1770370111,0.31626776,-1.555695556,-0.76685776
1.86464556,-1.65639888,12.76528212,23.66,-78.330002,-51.099998,1770370111,0.412735556,-1.366423368,-0.891411076
2.46305556,-1.66836708,13.07884896,23.309999,-71.120003,-58.310001,1770370111,0.406629983,-1.240648941,-1.017185573
2.95375176,-1.53911052,12.8777832,21.139999,-66.220001,-63.700001,1770370111,0.368775538,-1.155171129,-1.111211129
3.38939424,-1.31410836,12.33682056,18.34,-64.889999,-66.639999,1770370111,0.319931111,-1.131969983,-1.16249776
3.62397096,-1.31889564,11.57803668,13.79,-65.449997,-66.57,1770370111,0.240558889,-1.141738837,-1.161276667
3.77477028,-1.37394936,11.01313764,10.01,-63,-66.010002,1770370111,0.174618889,-1.099,-1.151507813
3.85615404,-1.57262148,10.84079556,7.63,-58.450001,-68.879997,1770370111,0.133101111,-1.019627795,-1.201573281
3.88487772,-1.51756776,10.8431892,3.99,-46.900002,-73.57,1770370111,0.069603333,-0.818144479,-1.283387778
3.85615404,-1.13219172,10.76898636,0.91,-30.030001,-77.419998,1770370111,0.015874444,-0.523856684,-1.350548854
3.70535472,-0.55293084,10.50329232,-3.92,-10.57,-81.269997,1770370111,-0.068382222,-0.184387778,-1.417709948
3.3870006,0.00239364,10.16578908,-9.66,11.27,-78.75,1770370111,-0.168513333,0.196598889,-1.37375
2.91066624,0.4667598,9.8258922,-12.53,29.120001,-80.080002,1770370111,-0.218578889,0.50798224,-1.396951146
2.41997004,0.74681568,9.6104646,-15.12,46.689999,-78.330002,1770370111,-0.26376,0.814481094,-1.366423368
1.86943284,0.90000864,9.56737908,-14.77,61.669998,-73.849998,1770370111,-0.257654444,1.075798854,-1.288272187
1.3284702,0.9335196,9.60567732,-11.97,73.639999,-68.669998,1770370111,-0.20881,1.284608871,-1.197909965
0.81623124,1.06756344,9.51232536,-9.1,77.769997,-60.689999,1770370111,-0.158744444,1.356654392,-1.058703316
0.34468416,1.28538468,9.24663132,-7.42,73.43,-58.869999,1770370111,-0.129437778,1.280945556,-1.026954427
0.00718092,1.33086384,8.83731888,-4.62,66.779999,-51.939999,1770370111,-0.080593333,1.164939983,-0.906064427
-0.16037388,1.376343,8.45194284,0.35,57.119999,-49.419998,1770370111,0.006105556,0.996426649,-0.86210441
-0.18909756,1.63006884,8.39688912,9.03,47.810001,-43.82,1770370111,0.157523333,0.834018906,-0.764415556
-0.03351096,2.13752052,8.61949764,9.45,39.900002,-41.02,1770370111,0.16485,0.696033368,-0.715571111
0.2872368,2.5492266,8.87322348,7.98,34.93,-35.139999,1770370111,0.139206667,0.609334444,-0.61299776
0.65346372,2.84603796,8.82774432,6.86,30.59,-29.889999,1770370111,0.119668889,0.533625556,-0.521414427
1.06038252,2.97768816,8.86604256,5.74,31.780001,-29.469999,1770370111,0.100131111,0.554384462,-0.51408776
1.44097128,3.0638592,8.80141428,3.29,36.330002,-25.76,1770370111,0.057392222,0.633756702,-0.449368889
1.8191664,3.20269032,8.60752944,-0.91,46.130001,-24.5,1770370111,-0.015874444,0.80471224,-0.427388889
2.12315868,3.2553504,7.93252296,-3.78,57.049999,-18.41,1770370111,-0.06594,0.995205538,-0.321152222
2.24762796,3.21705216,7.3365066,-9.52,64.260002,-11.13,1770370111,-0.166071111,1.120980035,-0.194156667
2.12076504,2.99683728,7.53757236,-13.09,73.080002,-3.57,1770370111,-0.228347778,1.274840035,-0.062276667
1.8670392,2.74789872,8.39928276,-17.43,84.07,2.8,1770370111,-0.304056667,1.466554444,0.048844444
1.43857764,2.22847884,8.8325316,-19.110001,96.529999,10.08,1770370111,-0.333363351,1.683912205,0.17584
0.84256128,1.5319296,8.71763688,-20.58,105.980003,14,1770370111,-0.359006667,1.848762275,0.244222222
-0.0119682,0.50745168,8.71763688,-17.57,116.830002,21.559999,1770370111,-0.306498889,2.038034479,0.376102205
-0.89043408,-0.32792868,9.05274648,-14,125.790001,26.809999,1770370111,-0.244222222,2.194336684,0.467685538
-2.0226258,-1.15612812,9.91206324,-9.87,137.690002,30.52,1770370111,-0.172176667,2.40192559,0.532404444
-3.1356684,-1.80480456,10.82404008,-8.75,149.589996,31.92,1770370111,-0.152638889,2.609514375,0.556826667
-4.53355416,-2.29550076,11.46074832,-7,159.669998,30.73,1770370111,-0.122111111,2.78535441,0.536067778
-5.99846184,-2.60667396,11.69771868,-9.87,163.940002,26.389999,1770370111,-0.172176667,2.859842257,0.460358871
-7.58065788,-2.82688884,11.70011232,-13.79,159.25,14.7,1770370111,-0.240558889,2.778027778,0.256433333
-8.87561712,-2.89151712,11.24292708,-19.879999,147.490005,5.81,1770370111,-0.346795538,2.572881198,0.101352222
-9.95514876,-3.00641184,10.84558284,-20.23,128.169998,-6.65,1770370111,-0.352901111,2.23585441,-0.116005556
-10.43387676,-3.08540196,10.6277616,-21.629999,99.120003,-13.86,1770370111,-0.377323316,1.729093386,-0.24178
-10.6157934,-3.0997638,10.68520896,-20.790001,66.150002,-22.469999,1770370111,-0.362670017,1.153950035,-0.391976649
-10.29504564,-2.752686,10.66605984,-23.24,30.379999,-28.700001,1770370111,-0.405408889,0.529962205,-0.500655573
-9.57216636,-2.08486044,10.31419476,-27.58,-4.76,-34.02,1770370111,-0.481117778,-0.083035556,-0.59346
-8.50220928,-1.43857764,9.90727596,-31.709999,-34.93,-38.43,1770370111,-0.553163316,-0.609334444,-0.67039
-7.23836736,-0.897615,9.56019816,-36.889999,-59.009998,-39.130001,1770370111,-0.643525538,-1.029396632,-0.682601129
-5.9362272,-0.45239796,9.37349424,-40.880001,-77.279999,-45.5,1770370111,-0.713128906,-1.348106649,-0.793722222
-4.76813088,-0.14601204,9.52189992,-42.630001,-86.519997,-46.200001,1770370111,-0.743656684,-1.509293281,-0.805933351
-3.8178558,-0.17473572,9.97908516,-43.68,-89.32,-45.5,1770370111,-0.761973333,-1.558137778,-0.793722222
-3.22183944,-0.74681568,10.61818704,-40.110001,-83.860001,-36.400002,1770370111,-0.699696684,-1.462891129,-0.634977813
-2.95375176,-1.09628712,10.52244144,-29.33,-72.870003,-32.130001,1770370111,-0.511645556,-1.271176719,-0.560490017
-2.88672984,-0.97899876,9.97669152,-17.709999,-57.82,-24.709999,1770370111,-0.308941094,-1.008637778,-0.431052205
-3.07822104,-0.68697468,9.30168504,-10.29,-39.689999,-24.639999,1770370111,-0.179503333,-0.692369983,-0.429831094
-3.44205432,-0.26808768,8.42082552,-6.93,-22.26,-20.299999,1770370111,-0.12089,-0.388313333,-0.354122205
-4.01652792,0.13404384,7.5160296,-4.34,-4.48,-22.959999,1770370111,-0.075708889,-0.078151111,-0.400524427
-4.61733156,0.47154708,6.8697468,-3.22,10.08,-22.959999,1770370111,-0.056171111,0.17584,-0.400524427
-5.18462424,0.69894288,6.56575452,-3.22,19.809999,-24.15,1770370111,-0.056171111,0.345574427,-0.421283333
-5.76149148,0.75878388,6.62080824,-1.89,24.709999,-28.209999,1770370111,-0.03297,0.431052205,-0.49210776
-6.30963504,0.67500648,6.72134112,1.33,24.15,-25.48,1770370111,0.023201111,0.421283333,-0.444484444
-6.881715,0.48830256,6.80511852,4.76,23.799999,-22.540001,1770370111,0.083035556,0.41517776,-0.393197795
-7.4681568,0.2513322,6.86256588,12.25,17.639999,-17.43,1770370111,0.213694444,0.307719983,-0.304056667
-7.89422472,-0.01436184,6.89607684,13.65,7.28,-18.690001,1770370111,0.238116667,0.126995556,-0.326036684
-8.20061064,-0.55293084,6.74288388,16.1,-6.72,-15.54,1770370111,0.280855556,-0.117226667,-0.271086667
-8.38731456,-1.10825532,6.55378632,18.200001,-26.110001,-16.1,1770370111,0.317488906,-0.455474462,-0.280855556
-8.35859088,-1.7234208,6.4149552,23.030001,-48.369999,-14.49,1770370111,0.401745573,-0.84378776,-0.25277
-8.1503442,-2.36730996,6.32160324,27.93,-71.330002,-12.18,1770370111,0.487223333,-1.244312257,-0.212473333
-7.68837168,-3.06146556,6.02479188,34.509998,-92.540001,-11.55,1770370111,0.602007743,-1.614308906,-0.201483333
-7.06363164,-3.76519572,5.82611976,42.349998,-114.169998,-13.72,1770370111,0.738772187,-1.991632187,-0.239337778
-6.3072414,-4.40669124,5.85005616,47.950001,-129.710007,-16.870001,1770370111,0.836461129,-2.262719011,-0.294287795
-5.51494656,-4.95004752,6.09899472,56.209999,-142.520004,-20.23,1770370111,0.980552205,-2.486182292,-0.352901111
-4.59100152,-5.13196416,6.93916236,64.889999,-151.479996,-24.639999,1770370111,1.131969983,-2.642484375,-0.429831094
-3.49710804,-4.99313304,8.27241984,70.629997,-154.839996,-31.92,1770370111,1.232101059,-2.701097708,-0.556826667
-2.2619898,-4.4521704,9.6822738,74.410004,-153.229996,-39.34,1770370111,1.298041181,-2.673012152,-0.686264444
-0.93591324,-3.530619,11.07297864,74.480003,-147.070007,-47.110001,1770370111,1.299262275,-2.565554567,-0.821807795
0.3111732,-2.4654492,12.43256616,65.309998,-133.630005,-50.889999,1770370111,1.139296632,-2.331101198,-0.88774776
1.45054584,-1.33325748,13.33736208,51.310001,-118.089996,-56.139999,1770370111,0.895074462,-2.060014375,-0.979331094
2.74550508,-0.01914912,13.54560876,32.200001,-101.43,-57.540001,1770370111,0.561711129,-1.76939,-1.003753351
3.99498516,1.20639456,13.12672176,15.54,-91.629997,-46.41,1770370111,0.271086667,-1.598434392,-0.809596667
4.80882276,1.88618832,12.6743238,1.54,-87.849998,-35.279999,1770370111,0.026864444,-1.53249441,-0.615439983
4.94047296,2.33858628,12.32485236,-9.24,-78.959999,-21.91,1770370111,-0.161186667,-1.377413316,-0.382207778
4.55270328,2.78380332,11.7647406,-17.360001,-66.010002,-18.200001,1770370111,-0.302835573,-1.151507813,-0.317488906
3.93035688,3.24577584,10.77856092,-26.459999,-44.73,-17.639999,1770370111,-0.461579983,-0.78029,-0.307719983
3.24577584,3.58806636,9.53147448,-33.740002,-20.58,-21.84,1770370111,-0.58857559,-0.359006667,-0.380986667
2.52050292,3.72929112,8.30353716,-39.34,5.74,-25.76,1770370111,-0.686264444,0.100131111,-0.449368889
1.6396434,3.83939856,7.53278508,-42,28.280001,-34.720001,1770370111,-0.732666667,0.493328906,-0.605671129
0.74681568,3.98062332,7.2168246,-46.200001,48.02,-41.439999,1770370111,-0.805933351,0.837682222,-0.72289776
-0.14122476,3.829824,7.2886338,-50.470001,63.91,-46.41,1770370111,-0.880421129,1.114874444,-0.809596667
-0.8138376,3.42529884,7.53039144,-53.48,73.989998,-51.240002,1770370111,-0.932928889,1.29071441,-0.893853368
-1.36198116,2.7287496,7.86789468,-54.529999,73.919998,-53.830002,1770370111,-0.951245538,1.289493298,-0.939034479
-1.81677276,1.86464556,8.17188696,-53.48,66.639999,-54.599998,1770370111,-0.932928889,1.16249776,-0.952466632
-2.00587032,0.8856468,8.5333266,-46.130001,49.209999,-51.169998,1770370111,-0.80471224,0.858441094,-0.892632187
-1.86943284,-0.07899012,9.09343836,-36.68,27.93,-48.439999,1770370111,-0.639862222,0.487223333,-0.845008871
-1.4002794,-1.06756344,10.12988448,-23.799999,3.5,-45.009998,1770370111,-0.41517776,0.061055556,-0.78517441
-0.69176196,-1.71384624,11.30037444,-11.69,-16.379999,-38.009998,1770370111,-0.203925556,-0.285739983,-0.663063298
0.28244952,-2.3697036,11.95862544,-1.68,-32.830002,-34.93,1770370111,-0.029306667,-0.572701146,-0.609334444
1.27581012,-3.0040182,12.08548836,7.98,-42,-30.309999,1770370111,0.139206667,-0.732666667,-0.528741094
2.22369156,-3.64072644,11.78388972,18.129999,-45.779999,-26.040001,1770370111,0.31626776,-0.798606649,-0.454253351
2.9800818,-4.1170608,11.00835036,25.76,-41.16,-23.030001,1770370111,0.449368889,-0.718013333,-0.401745573
3.65987556,-4.35403116,10.15382088,31.01,-31.57,-15.89,1770370111,0.540952222,-0.550721111,-0.277192222
4.1649336,-4.4521704,9.39264336,28.77,-12.39,-10.92,1770370111,0.501876667,-0.216136667,-0.190493333
4.65802344,-4.49286228,8.83013796,25.129999,12.95,1.19,1770370111,0.438378871,0.225905556,0.020758889
4.88063196,-4.70110896,8.5452948,19.67,46.900002,14.28,1770370111,0.343132222,0.818144479,0.249106667
4.80164184,-5.11999596,8.50460292,19.110001,80.290001,31.85,1770370111,0.333363351,1.400614462,0.555605556
4.18887,-5.75431056,8.796627,23.1,114.169998,49.630001,1770370111,0.402966667,1.991632187,0.865767795
2.92263444,-6.24500676,9.27296136,31.290001,145.809998,66.010002,1770370111,0.545836684,2.54357441,1.151507813
1.30692744,-6.0319728,9.71339112,40.110001,172.690002,78.470001,1770370111,0.699696684,3.012481146,1.368865573
-0.4667598,-5.26122072,9.91685052,43.610001,192.429993,83.160004,1770370111,0.76075224,3.356834322,1.45068007
-2.2619898,-4.0213152,10.292652,42.560001,199.850006,85.260002,1770370111,0.742435573,3.486272327,1.487313368
-4.05961344,-2.47263012,10.75223088,29.33,199.710007,81.900002,1770370111,0.511645556,3.483830122,1.428700035
-5.98170636,-1.39788576,11.03228676,9.8,192.080002,75.459999,1770370111,0.170955556,3.350728924,1.31635776
-7.64289252,-1.017297,10.80489096,-4.13,178.360001,63.98,1770370111,-0.072045556,3.111391129,1.116095556
-9.28253592,-1.1728836,10.54159056,-12.6,162.820007,49.07,1770370111,-0.2198,2.840304567,0.855998889
-10.49132412,-1.18006452,10.26153468,-16.66,141.820007,29.4,1770370111,-0.290624444,2.473971233,0.512866667
-11.24532072,-0.79947576,10.12270356,-16.66,114.099998,11.41,1770370111,-0.290624444,1.990411076,0.199041111
-11.43202464,0.04547916,10.08679896,-17.57,85.400002,-4.62,1770370111,-0.306498889,1.48975559,-0.080593333
-11.1184578,0.82819944,9.9695106,-20.09,51.099998,-16.66,1770370111,-0.350458889,0.891411076,-0.290624444
-10.35967392,1.41703488,9.87137136,-23.17,16.799999,-22.469999,1770370111,-0.404187778,0.293066649,-0.391976649
-9.41418612,1.68033528,9.9575424,-22.889999,-14.07,-27.51,1770370111,-0.399303316,-0.245443333,-0.479896667
-8.41125096,1.40267304,10.40275944,-23.59,-39.200001,-27.09,1770370111,-0.411514444,-0.68382224,-0.47257
-7.45140132,0.99814788,10.6876026,-20.09,-58.240002,-24.290001,1770370112,-0.350458889,-1.015964479,-0.423725573
-6.68783016,1.06756344,10.37164212,-15.19,-68.809998,-21.84,1770370112,-0.264981111,-1.200352187,-0.380986667
-6.02718552,1.43139672,9.7421148,-15.26,-73.57,-22.82,1770370112,-0.266202222,-1.283387778,-0.398082222
-5.41920096,1.7114526,9.03838464,-15.12,-71.75,-22.889999,1770370112,-0.26376,-1.251638889,-0.399303316
-5.04339948,1.78804908,8.16949332,-16.870001,-63.139999,-23.59,1770370112,-0.294287795,-1.101442205,-0.411514444
-4.86387648,1.82395368,7.37719848,-15.68,-50.119999,-24.99,1770370112,-0.273528889,-0.874315538,-0.435936667
-4.7753118,1.74975084,6.90325776,-16.24,-37.939999,-23.940001,1770370112,-0.283297778,-0.661842205,-0.417620017
-4.667598,1.58219604,6.66389376,-15.82,-23.66,-27.440001,1770370112,-0.275971111,-0.412735556,-0.478675573
-4.65084252,1.18963908,6.61602096,-15.75,-13.3,-24.5,1770370112,-0.27475,-0.232011111,-0.427388889
-4.80403548,0.60798456,6.6782556,-11.2,-8.05,-17.85,1770370112,-0.195377778,-0.140427778,-0.311383333
-5.01228216,0.04069188,7.00618428,-8.75,-2.8,-11.62,1770370112,-0.152638889,-0.048844444,-0.202704444
-5.23249704,-0.53378172,7.31975112,-4.13,-1.26,-3.85,1770370112,-0.072045556,-0.02198,-0.067161111
-5.46707376,-1.17767088,7.59023244,-3.43,0.49,2.03,1770370112,-0.059834444,0.008547778,0.035412222
-5.6011176,-1.9627848,7.59262608,-2.8,-0.84,10.57,1770370112,-0.048844444,-0.014653333,0.184387778
-5.7806406,-2.92981536,7.53039144,-0.77,-3.85,15.68,1770370112,-0.013432222,-0.067161111,0.273528889
-5.93383356,-3.9016332,7.5160296,3.64,-9.38,23.66,1770370112,0.063497778,-0.163628889,0.412735556
-6.08702652,-4.9907394,7.61895612,8.4,-15.96,24.709999,1770370112,0.146533333,-0.278413333,0.431052205
-6.33357144,-5.94340812,7.79608548,14.14,-23.17,25.48,1770370112,0.246664444,-0.404187778,0.444484444
-6.40538064,-6.70937292,7.88225652,18.690001,-29.82,22.469999,1770370112,0.326036684,-0.520193333,0.391976649
-6.25458132,-7.07081256,7.59023244,29.120001,-36.82,13.58,1770370112,0.50798224,-0.642304444,0.236895556
-5.76627876,-6.91043868,7.06602528,42,-44.799999,11.69,1770370112,0.732666667,-0.781511094,0.203925556
-5.1702624,-6.40538064,6.68543652,63.349998,-55.650002,6.86,1770370112,1.105105521,-0.970783368,0.119668889
-4.428234,-5.505372,6.49155168,80.849998,-67.760002,4.69,1770370112,1.410383298,-1.18203559,0.081814444
-3.66945012,-4.30137108,6.55378632,99.75,-81.410004,-0.7,1770370112,1.740083333,-1.420152292,-0.012211111
-2.8603998,-2.77422876,7.00618428,115.5,-90.720001,-4.83,1770370112,2.014833333,-1.582560017,-0.084256667
-2.11358412,-1.22793732,7.76496816,125.440002,-94.010002,-10.57,1770370112,2.188231146,-1.639952257,-0.184387778
-1.39788576,0.29441772,8.93306448,129.429993,-89.949997,-22.68,1770370112,2.257834322,-1.569127725,-0.39564
-0.48590892,1.66597344,10.12749084,122.5,-79.870003,-32.900002,1770370112,2.136944444,-1.39328783,-0.573922257
0.47154708,2.86997436,11.25968256,111.650002,-66.779999,-38.779999,1770370112,1.947672257,-1.164939983,-0.676495538
1.28538468,3.54498084,12.13096752,92.610001,-51.029999,-41.09,1770370112,1.615530017,-0.890189983,-0.716792222
1.7593254,3.69338652,12.66474924,71.540001,-34.02,-43.610001,1770370112,1.247975573,-0.59346,-0.76075224
2.16145692,3.50189532,12.86102772,52.43,-20.02,-38.57,1770370112,0.914612222,-0.349237778,-0.672832222
2.14948872,3.111732,13.0214016,31.01,-2.38,-33.040001,1770370112,0.540952222,-0.041517778,-0.576364462
1.82156004,2.6569404,12.88496412,11.2,20.02,-30.66,1770370112,0.195377778,0.349237778,-0.534846667
1.1609154,2.00347668,12.28176684,-2.59,43.049999,-25.9,1770370112,-0.045181111,0.750983316,-0.451811111
0.30399228,1.58219604,11.43441828,-13.23,63.349998,-25.76,1770370112,-0.23079,1.105105521,-0.449368889
-0.70133652,1.6516116,10.7594118,-15.47,78.75,-26.110001,1770370112,-0.269865556,1.37375,-0.455474462
-1.6875162,2.14709508,10.19930004,-20.299999,88.129997,-30.66,1770370112,-0.354122205,1.537378837,-0.534846667
-2.55640752,2.81013336,9.79238124,-22.469999,88.410004,-34.369999,1770370112,-0.391976649,1.542263403,-0.599565538
-3.33434052,3.34630872,9.3232278,-26.32,82.669998,-31.92,1770370112,-0.459137778,1.442132187,-0.556826667
-4.01652792,3.67184376,8.86125528,-29.469999,74.970001,-33.599998,1770370112,-0.51408776,1.307810017,-0.586133298
-4.55270328,3.82024944,8.59077396,-32.060001,63.98,-23.870001,1770370112,-0.559268906,1.116095556,-0.416398906
-4.75616268,3.6862056,8.60992308,-37.450001,46.27,-22.26,1770370112,-0.653294462,0.807154444,-0.388313333
-4.75855632,3.19072212,8.68173228,-42.91,22.26,-24.15,1770370112,-0.748541111,0.388313333,-0.421283333
-4.4521704,2.24523432,8.84689344,-44.029999,0.98,-24.85,1770370112,-0.768078871,0.017095556,-0.433494444
-3.79870668,1.21836276,8.89476624,-39.41,-19.389999,-28.700001,1770370112,-0.687485556,-0.33824776,-0.500655573
-2.90587896,0.33989688,9.04317192,-31.780001,-34.439999,-23.59,1770370112,-0.554384462,-0.600786649,-0.411514444
-2.02741308,-0.33989688,9.215514,-25.76,-44.240002,-20.790001,1770370112,-0.449368889,-0.771742257,-0.362670017
-1.13458536,-0.9335196,9.69184836,-19.950001,-45.57,-16.73,1770370112,-0.348016684,-0.794943333,-0.291845556
-0.20824668,-1.31889564,10.22323644,-19.67,-40.810001,-11.06,1770370112,-0.343132222,-0.711907795,-0.192935556
0.62952732,-1.72820808,10.75223088,-20.790001,-28.139999,-5.53,1770370112,-0.362670017,-0.490886649,-0.096467778
1.3045338,-2.07289224,11.05622316,-23.870001,-14.49,1.75,1770370112,-0.416398906,-0.25277,0.030527778
1.85267736,-2.47981104,11.1782988,-27.440001,-1.4,8.19,1770370112,-0.478675573,-0.024422222,0.14287
2.12315868,-2.83885704,10.80249732,-30.1,10.29,15.68,1770370112,-0.525077778,0.179503333,0.273528889
2.22369156,-3.2074776,10.18733184,-28.209999,22.120001,25.690001,1770370112,-0.49210776,0.385871129,0.448147795
2.1183714,-3.45641616,9.5027508,-23.24,33.669998,37.380001,1770370112,-0.405408889,0.58735441,0.652073351
1.84789008,-3.37742604,8.8325316,-12.53,45.57,47.110001,1770370112,-0.218578889,0.794943333,0.821807795
1.39070484,-3.01359276,8.41603824,-3.29,61.880001,59.43,1770370112,-0.057392222,1.07946224,1.036723333
0.7061238,-2.68327044,8.15273784,5.88,78.540001,67.059998,1770370112,0.102573333,1.370086684,1.16982441
-0.06702192,-2.48459832,8.16709968,13.86,95.059998,73.290001,1770370112,0.24178,1.658268854,1.278503351
-1.0053288,-2.33858628,8.51417748,17.99,110.739998,78.82,1770370112,0.313825556,1.931797743,1.374971111
-2.01783852,-1.97714664,8.7846588,27.09,120.610001,79.800003,1770370112,0.47257,2.103974462,1.392066719
-3.03752916,-1.39309848,9.01684188,29.120001,126.489998,75.529999,1770370112,0.50798224,2.206547743,1.317578871
-4.06440072,-0.49308984,9.49796352,26.74,125.860001,68.739998,1770370112,0.466464444,2.195557795,1.199131076
-5.25882708,0.32792868,10.08679896,18.059999,120.610001,59.709999,1770370112,0.315046649,2.103974462,1.04160776
-6.62080824,0.83298672,10.6277616,4.55,117.949997,47.810001,1770370112,0.079372222,2.05757217,0.834018906
-7.9947576,0.90240228,11.0466486,-5.39,113.75,29.049999,1770370112,-0.094025556,1.984305556,0.506761094
-9.11737476,0.66303828,11.19984156,-16.1,108.709999,11.48,1770370112,-0.280855556,1.896385538,0.200262222
-9.993447,0.3470778,11.13760692,-14.98,93.940002,-3.29,1770370112,-0.261317778,1.638731146,-0.057392222
-10.4482386,0.14601204,10.9748394,-13.58,71.190002,-17.639999,1770370112,-0.236895556,1.241870035,-0.307719983
-10.46738772,0.0957456,10.8072846,-6.65,42.77,-27.440001,1770370112,-0.116005556,0.746098889,-0.478675573
-9.96711696,0.33989688,10.6038252,-1.33,11.69,-34.860001,1770370112,-0.023201111,0.203925556,-0.608113351
-9.13652388,0.85213584,10.36924848,1.19,-19.6,-38.290001,1770370112,0.020758889,-0.341911111,-0.667947795
-8.00193852,1.6037388,10.15382088,0.21,-47.040001,-44.59,1770370112,0.003663333,-0.820586684,-0.777847778
-6.71176656,2.23565976,9.97669152,-3.57,-65.449997,-46.200001,1770370112,-0.062276667,-1.141738837,-0.805933351
-5.57478756,2.43672552,10.09397988,-10.36,-75.459999,-46.970001,1770370112,-0.180724444,-1.31635776,-0.819365573
-4.66999164,2.08007316,9.90488232,-16.1,-73.709999,-44.029999,1770370112,-0.280855556,-1.285829983,-0.768078871
-4.1409972,1.63246248,9.4788144,-21,-64.330002,-40.880001,1770370112,-0.366333333,-1.122201146,-0.713128906
-3.97104876,1.24948008,8.88758532,-21.209999,-46.27,-37.59,1770370112,-0.369996649,-0.807154444,-0.655736667
-4.05961344,0.83059308,8.2460898,-20.440001,-25.27,-36.889999,1770370112,-0.356564462,-0.440821111,-0.643525538
-4.43780856,0.43564248,7.539966,-20.23,-3.85,-34.790001,1770370112,-0.352901111,-0.067161111,-0.60689224
-4.97159028,0.22021488,7.13544084,-19.74,13.58,-36.189999,1770370112,-0.344353333,0.236895556,-0.631314427
-5.6011176,0.05505372,6.88650228,-22.75,24.5,-39.200001,1770370112,-0.396861111,0.427388889,-0.68382224
-6.31442232,-0.29441772,6.91522596,-21.35,33.459999,-33.740002,1770370112,-0.372438889,0.583691094,-0.58857559
-7.02772704,-0.99814788,6.89847048,-17.01,39.689999,-28.42,1770370112,-0.29673,0.692369983,-0.495771111
-7.8631074,-1.66597344,6.95113056,-8.75,42.139999,-19.32,1770370112,-0.152638889,0.735108871,-0.337026667
-8.6649768,-2.08486044,7.0133652,-3.01,42.349998,-10.78,1770370112,-0.052507778,0.738772187,-0.188051111
-9.27296136,-2.5611948,6.96309876,2.73,36.470001,-2.73,1770370112,0.047623333,0.636198906,-0.047623333
-9.66073104,-3.07822104,6.97506696,5.74,23.450001,3.57,1770370112,0.100131111,0.40907224,0.062276667
-9.754083,-3.75562116,7.04208888,10.01,4.41,8.96,1770370112,0.174618889,0.07693,0.156302222
-9.60807096,-4.54552236,7.300602,12.81,-16.379999,11.76,1770370112,0.223463333,-0.285739983,0.205146667
-9.20593944,-5.12478324,7.8272028,20.23,-33.18,12.46,1770370112,0.352901111,-0.578806667,0.217357778
-8.64582768,-5.46468012,8.17667424,27.65,-47.25,10.85,1770370112,0.482338889,-0.82425,0.189272222
-7.93970388,-5.57239392,7.96124664,37.52,-55.580002,10.22,1770370112,0.654515556,-0.969562257,0.178282222
-7.18331364,-5.29712532,7.2886338,49.419998,-64.190002,6.72,1770370112,0.86210441,-1.119758924,0.117226667
-6.26654952,-4.78728,6.67586196,67.550003,-75.949997,9.31,1770370112,1.178372275,-1.324905503,0.162407778
-5.38569,-4.05482616,6.12293112,83.300003,-90.300003,7.42,1770370112,1.453122275,-1.575233386,0.129437778
-4.62451248,-2.92502808,5.93383356,98.559998,-103.110001,12.81,1770370112,1.71932441,-1.798696684,0.223463333
-3.96865512,-1.52714232,6.35990148,110.949997,-110.949997,10.08,1770370112,1.935461059,-1.935461059,0.17584
-3.30801048,0.07659648,7.24794192,114.660004,-111.93,5.25,1770370112,2.00018007,-1.952556667,0.091583333
-2.61146124,1.51756776,8.04981132,112.279999,-108.290001,-6.09,1770370112,1.958662205,-1.889058906,-0.106236667
-2.05613676,2.55162024,8.55486936,106.400002,-99.190002,-12.74,1770370112,1.856088924,-1.730314479,-0.222242222
-1.4481522,3.17875392,8.75832876,95.830002,-88.059998,-19.809999,1770370112,1.671701146,-1.536157743,-0.345574427
-0.90718956,3.3151914,8.97615,86.870003,-81.059998,-28,1770370112,1.515398941,-1.414046632,-0.488444444
-0.33271596,3.24816948,9.43333524,79.730003,-77.769997,-35.84,1770370112,1.390845608,-1.356654392,-0.625208889
0.20824668,3.08061468,10.00062792,70.349998,-76.790001,-48.509998,1770370112,1.227216632,-1.339558906,-0.846229965
0.66064464,3.2553504,10.52483508,61.32,-72.099998,-55.720001,1770370112,1.069693333,-1.25774441,-0.972004462
0.9813924,3.73168476,10.5798888,51.310001,-68.739998,-64.260002,1770370112,0.895074462,-1.199131076,-1.120980035
1.1848518,4.27504104,10.23999192,38.57,-64.68,-74.830002,1770370112,0.672832222,-1.128306667,-1.305367813
1.39309848,4.7633436,9.54104904,24.85,-64.540001,-83.440002,1770370112,0.433494444,-1.125864462,-1.455564479
1.54868508,5.1104214,8.73439236,9.66,-64.959999,-91.419998,1770370112,0.168513333,-1.133191094,-1.594771076
1.436184,5.39047728,7.84874556,-5.67,-59.360001,-87.639999,1770370112,-0.09891,-1.03550224,-1.528831094
1.19921364,5.07212316,7.20725004,-28.209999,-50.68,-82.809998,1770370112,-0.49210776,-0.884084444,-1.44457441
1.16330904,3.86333496,7.4083158,-42.560001,-40.810001,-75.949997,1770370112,-0.742435573,-0.711907795,-1.324905503
1.436184,2.19736152,8.2101852,-53.689999,-29.610001,-73.220001,1770370112,-0.936592205,-0.516530017,-1.27728224
1.67794164,0.35665236,9.15327936,-56.349998,-15.33,-67.550003,1770370112,-0.98299441,-0.267423333,-1.178372275
1.93166748,-1.256661,9.9814788,-59.220001,-1.4,-63,1770370112,-1.033060017,-0.024422222,-1.099
2.13991416,-2.50853472,10.87430652,-56.490002,9.59,-55.369999,1770370112,-0.985436702,0.167292222,-0.965898871
2.20693608,-3.39178788,11.89160352,-51.52,21.629999,-52.220001,1770370112,-0.898737778,0.377323316,-0.910948906
2.25720252,-3.64312008,12.8418786,-46.900002,35.560001,-42,1770370112,-0.818144479,0.620324462,-0.732666667
2.26917072,-3.26013768,13.64135436,-39.759998,52.639999,-33.599998,1770370112,-0.693591076,0.918275538,-0.586133298
2.11358412,-2.56358844,14.01715584,-33.529999,70.419998,-22.610001,1770370112,-0.584912205,1.228437743,-0.394418906
1.675548,-1.69469712,14.05545408,-24.99,86.660004,-9.94,1770370112,-0.435936667,1.511735625,-0.173397778
0.8856468,-0.7300602,13.61741796,-18.969999,100.730003,3.71,1770370112,-0.330921094,1.757178941,0.064718889
-0.18191664,0.0957456,12.74373936,-14.77,106.82,14.63,1770370112,-0.257654444,1.863415556,0.255212222
-1.34522568,0.7061238,11.61154764,-17.99,109.760002,26.809999,1770370113,-0.313825556,1.914702257,0.467685538
-2.41278912,0.85452948,10.27829016,-19.67,110.32,36.82,1770370113,-0.343132222,1.924471111,0.642304444
-3.35588328,0.66064464,9.05274648,-19.879999,108.010002,44.799999,1770370113,-0.346795538,1.884174479,0.781511094
-4.00455972,0.38776968,8.14316328,-16.870001,106.75,51.66,1770370113,-0.294287795,1.862194444,0.90118
-4.36121208,0.27766224,7.36523028,-12.32,101.010002,58.52,1770370113,-0.214915556,1.762063368,1.020848889
-4.57903332,0.1914912,6.72852204,-3.99,90.230003,66.360001,1770370113,-0.069603333,1.574012275,1.157613351
-4.78488636,0.34468416,6.35032692,3.64,81.199997,70.980003,1770370113,0.063497778,1.416488837,1.238206719
-4.90217472,0.60559092,6.21867672,9.66,75.110001,72.519997,1770370113,0.168513333,1.31025224,1.265071059
-5.03621856,0.88085952,6.32399688,16.73,68.32,72.379997,1770370113,0.291845556,1.191804444,1.262628837
-5.24685888,1.06756344,6.65192556,19.32,64.959999,68.599998,1770370113,0.337026667,1.133191094,1.196688854
-5.41441368,1.21357548,7.19528184,19.110001,61.32,63.98,1770370113,0.333363351,1.069693333,1.116095556
-5.63941584,1.21118184,7.8870438,16.309999,56.560001,57.540001,1770370113,0.284518871,0.986657795,1.003753351
-6.15883572,1.09389348,8.68173228,12.46,53.130001,48.369999,1770370113,0.217357778,0.926823351,0.84378776
-6.81229944,0.98617968,9.2633868,7.56,53.830002,37.380001,1770370113,0.13188,0.939034479,0.652073351
-7.50166776,1.00772244,9.6104646,3.57,53.48,21.35,1770370113,0.062276667,0.932928889,0.372438889
-8.15513148,1.04602068,9.56977272,-3.43,52.360001,5.81,1770370113,-0.059834444,0.913391129,0.101352222
-8.676945,0.95027508,9.27296136,-4.41,46.689999,-10.22,1770370113,-0.07693,0.814481094,-0.178282222
-8.916309,0.73484748,8.68651956,-5.67,31.01,-28.629999,1770370113,-0.09891,0.540952222,-0.499434427
-8.88758532,0.82819944,8.40407004,-4.69,10.92,-39.900002,1770370113,-0.081814444,0.190493333,-0.696033368
-8.45433648,1.23511824,8.5333266,-4.13,-10.36,-49.77,1770370113,-0.072045556,-0.180724444,-0.86821
-7.8152346,1.59655788,8.95939452,-6.86,-33.18,-51.029999,1770370113,-0.119668889,-0.578806667,-0.890189983
-7.05884436,1.88379468,9.2873232,-9.87,-47.389999,-46.27,1770370113,-0.172176667,-0.826692205,-0.807154444
-6.2593686,1.9508166,9.28971684,-17.01,-53.759998,-43.959999,1770370113,-0.29673,-0.937813298,-0.76685776
-5.60351124,1.94363568,9.10301292,-23.450001,-53.48,-37.52,1770370113,-0.40907224,-0.932928889,-0.654515556
-5.25164616,1.80241092,8.8804044,-31.99,-45.150002,-34.369999,1770370113,-0.558047778,-0.787616702,-0.599565538
-5.16786876,1.62049428,8.48784744,-41.580002,-28.77,-30.379999,1770370113,-0.725340035,-0.501876667,-0.529962205
-5.39287092,1.43139672,8.10486504,-48.860001,-10.71,-23.870001,1770370113,-0.852335573,-0.18683,-0.416398906
-5.95776996,0.86649768,8.14076964,-53.759998,9.94,-18.34,1770370113,-0.937813298,0.173397778,-0.319931111
-6.91522596,-0.08617104,8.22694068,-50.119999,28.700001,-7,1770370113,-0.874315538,0.500655573,-0.122111111
-8.20779156,-1.17527724,8.16470604,-44.52,45.360001,2.17,1770370113,-0.776626667,0.791280017,0.037854444
-9.58413456,-2.28353256,7.9468848,-39.549999,56.139999,14,1770370113,-0.68992776,0.979331094,0.244222222
-10.70914536,-3.0399228,7.958853,-28.98,55.580002,20.860001,1770370113,-0.50554,0.969562257,0.363891129
-11.69532504,-3.60003456,8.02587492,-17.219999,46.130001,24.43,1770370113,-0.300393316,0.80471224,0.426167778
-12.34639512,-3.89445228,8.22454704,-5.67,30.73,26.6,1770370113,-0.09891,0.536067778,0.464022222
-12.73895208,-3.84418584,8.41603824,8.75,8.4,24.01,1770370113,0.152638889,0.146533333,0.418841111
-12.71740932,-3.50189532,8.57401848,23.1,-19.040001,21.98,1770370113,0.402966667,-0.33214224,0.383428889
-12.33682056,-2.95853904,8.57880576,32.900002,-46.549999,11.41,1770370113,0.573922257,-0.812038871,0.199041111
-11.29079988,-2.33619264,8.34422904,40.32,-73.220001,6.86,1770370113,0.70336,-1.27728224,0.119668889
-9.75887028,-1.61091972,8.05220496,46.34,-99.75,2.59,1770370113,0.808375556,-1.740083333,0.045181111
-8.13598236,-0.58404816,7.27905924,51.869999,-120.75,0.84,1770370113,0.904843316,-2.106416667,0.014653333
-6.75485208,0.179523,6.10856928,57.189999,-137.830002,1.19,1770370113,0.99764776,-2.404367813,0.020758889
-5.53888296,0.3351096,5.10084684,62.299999,-148.610001,-1.47,1770370113,1.086788871,-2.592418906,-0.025643333
-4.31812656,0.13404384,4.54552236,65.730003,-157.009995,-7.98,1770370113,1.146623386,-2.738952135,-0.139206667
-2.90348532,-0.11250108,4.42105308,66.010002,-162.050003,-15.4,1770370113,1.151507813,-2.826872275,-0.268644444
-1.39070484,0.07899012,4.69392804,69.089996,-162.820007,-21,1770370113,1.205236597,-2.840304567,-0.366333333
-0.01436184,0.82101852,5.1582942,76.089996,-158.479996,-25.549999,1770370113,1.327347708,-2.764595486,-0.445705538
1.15373448,1.43379036,5.82372612,79.870003,-150.5,-28.209999,1770370113,1.39328783,-2.625388889,-0.49210776
2.13752052,1.65879252,6.7740012,78.889999,-133.350006,-27.860001,1770370113,1.376192205,-2.326216771,-0.48600224
2.94178356,1.71384624,8.07374772,78.75,-108.5,-31.5,1770370113,1.37375,-1.892722222,-0.5495
3.62157732,1.92448656,9.50993172,77.419998,-79.730003,-31.01,1770370113,1.350548854,-1.390845608,-0.540952222
3.94232508,2.3816718,10.59425064,72.449997,-47.810001,-30.1,1770370113,1.263849948,-0.834018906,-0.525077778
3.62157732,3.18114756,11.10409596,59.849998,-21.280001,-30.1,1770370113,1.044049965,-0.371217795,-0.525077778
2.92981536,4.17450816,10.76898636,43.68,0.49,-30.940001,1770370113,0.761973333,0.008547778,-0.539731129
1.9627848,5.04339948,10.05089436,20.860001,13.58,-35.98,1770370113,0.363891129,0.236895556,-0.627651111
0.957456,5.5412766,9.1317366,-4.76,23.030001,-39.970001,1770370113,-0.083035556,0.401745573,-0.697254462
-0.10292652,5.41680732,8.17667424,-29.889999,31.92,-42.349998,1770370113,-0.521414427,0.556826667,-0.738772187
-0.777933,4.78009908,7.89183108,-52.639999,33.18,-42,1770370113,-0.918275538,0.578806667,-0.732666667
-1.08671256,3.33194688,8.617104,-67.760002,31.92,-46.200001,1770370113,-1.18203559,0.556826667,-0.805933351
-0.99575424,1.40985396,9.74690208,-73.989998,29.26,-49.98,1770370113,-1.29071441,0.510424444,-0.871873333
-0.83538036,-0.48590892,10.76659272,-70.839996,27.16,-47.880001,1770370113,-1.235764375,0.473791111,-0.835240017
-0.56729268,-1.88379468,11.6211222,-59.639999,21.280001,-48.02,1770370113,-1.040386649,0.371217795,-0.837682222
-0.3351096,-2.7167814,12.2554368,-51.310001,18.27,-39.970001,1770370113,-0.895074462,0.31871,-0.697254462
-0.06223464,-3.04231644,12.95677332,-40.18,16.940001,-32.48,1770370113,-0.700917778,0.295508906,-0.566595556
0.24415128,-2.93699628,13.74667452,-30.59,22.120001,-22.4,1770370113,-0.533625556,0.385871129,-0.390755556
0.52899444,-2.49177924,14.18710428,-24.219999,33.950001,-15.4,1770370113,-0.422504427,0.592238906,-0.268644444
0.68697468,-1.98432756,14.11529508,-19.18,46.689999,-7.21,1770370113,-0.334584444,0.814481094,-0.125774444
0.57686724,-1.39549212,13.59348156,-12.81,60.27,1.75,1770370113,-0.223463333,1.051376667,0.030527778
0.12446928,-0.59362272,12.95437968,-14.98,70.349998,12.88,1770370113,-0.261317778,1.227216632,0.224684444
-0.538569,0.33989688,12.21713856,-17.639999,81.059998,20.51,1770370113,-0.307719983,1.414046632,0.357785556
-1.32607656,1.13937264,11.16872424,-23.17,88.199997,28.139999,1770370113,-0.404187778,1.538599948,0.490886649
-2.12794596,1.41703488,9.71339112,-26.459999,94.010002,35.349998,1770370113,-0.461579983,1.639952257,0.616661076
-2.77183512,1.2925656,8.21736612,-28.77,97.300003,44.310001,1770370113,-0.501876667,1.697344497,0.772963351
-3.40375608,0.88804044,7.1091108,-25.34,99.82,53.689999,1770370113,-0.442042222,1.741304444,0.936592205
-3.8776968,0.40452516,6.35990148,-17.01,102.970001,61.459999,1770370113,-0.29673,1.796254462,1.072135538
-4.33009476,0.11250108,5.95058904,-8.54,101.080002,68.949997,1770370113,-0.148975556,1.763284479,1.202794392
-4.78488636,0.1675548,5.80697064,0,97.440002,74.480003,1770370113,0,1.699786702,1.299262275
-5.27558256,0.46436616,6.06309012,5.46,92.120003,75.459999,1770370113,0.095246667,1.606982275,1.31635776
-5.864418,0.9215514,6.77639484,4.97,87.080002,75.459999,1770370113,0.086698889,1.519062257,1.31635776
-6.41734884,1.29495924,7.70033988,2.24,80.639999,70.629997,1770370113,0.039075556,1.406719983,1.232101059
-6.94634328,1.52474868,8.46391104,-3.99,71.330002,64.330002,1770370113,-0.069603333,1.244312257,1.122201146
-7.55672148,1.39549212,8.796627,-9.1,62.650002,57.470001,1770370113,-0.158744444,1.092894479,1.00253224
-8.3418354,1.23990552,8.60752944,-10.22,53.970001,47.599998,1770370113,-0.178282222,0.941476684,0.830355521
-9.04317192,1.14655356,8.30114352,-10.01,47.110001,31.99,1770370113,-0.174618889,0.821807795,0.558047778
-9.57456,1.16330904,8.138376,-6.58,42.139999,14.91,1770370113,-0.114784444,0.735108871,0.260096667
-9.84025404,1.136979,8.14795056,-5.39,31.780001,-1.05,1770370113,-0.094025556,0.554384462,-0.018316667
-9.8258922,1.15612812,8.2101852,-3.99,18.690001,-19.530001,1770370113,-0.069603333,0.326036684,-0.340690017
-9.45966528,1.45533312,8.2700262,-1.33,-0.7,-30.309999,1770370113,-0.023201111,-0.012211111,-0.528741094
-8.77029696,2.1303396,8.26523892,-0.21,-22.82,-38.849998,1770370113,-0.003663333,-0.398082222,-0.677716632
-7.90140564,2.85082524,8.45194284,-5.11,-41.09,-42.91,1770370113,-0.089141111,-0.716792222,-0.748541111
-7.14980268,3.25774404,8.75832876,-15.47,-54.880001,-39.759998,1770370113,-0.269865556,-0.957351129,-0.693591076
-6.38862516,3.45162888,8.81816976,-26.459999,-57.330002,-34.93,1770370113,-0.461579983,-1.000090035,-0.609334444
-5.85484344,3.39657516,8.56683756,-34.860001,-56.91,-27.09,1770370113,-0.608113351,-0.992763333,-0.47257
-5.64180948,3.051891,8.0665668,-43.68,-50.470001,-19.25,1770370113,-0.761973333,-0.880421129,-0.335805556
-5.75909784,2.45826828,7.599807,-50.889999,-40.25,-14.63,1770370113,-0.88774776,-0.702138889,-0.255212222
-6.1396866,1.9986894,7.07799348,-54.740002,-27.790001,-9.45,1770370113,-0.954908924,-0.484781129,-0.16485
-6.64953192,1.63724976,6.64953192,-57.889999,-14.49,-10.78,1770370113,-1.009858871,-0.25277,-0.188051111
-7.300602,0.94309416,6.44607252,-53.970001,0.7,-2.59,1770370113,-0.941476684,0.012211111,-0.045181111
-8.16949332,-0.11010744,6.34553964,-46.34,18.27,5.6,1770370113,-0.808375556,0.31871,0.097688889
-9.16285392,-1.1010744,6.36468876,-35.139999,26.879999,13.23,1770370113,-0.61299776,0.468906649,0.23079
-10.25435376,-2.06331768,6.3551142,-24.360001,31.01,18.41,1770370113,-0.424946684,0.540952222,0.321152222
-11.12563872,-2.95853904,6.42213612,-12.32,27.860001,20.790001,1770370113,-0.214915556,0.48600224,0.362670017
-11.8245816,-3.77955756,6.68064924,4.34,12.67,22.120001,1770370113,0.075708889,0.221021111,0.385871129
-12.16926576,-4.29897744,7.16416452,15.54,-10.15,17.780001,1770370113,0.271086667,-0.177061111,0.31016224
-12.03043464,-4.49286228,7.6835844,29.540001,-41.439999,12.6,1770370113,0.515308906,-0.72289776,0.2198
-11.33627904,-4.45695768,7.95167208,38.779999,-74.690002,9.1,1770370113,0.676495538,-1.30292559,0.158744444
-10.20648096,-4.39711668,7.66443528,50.75,-104.93,2.24,1770370113,0.885305556,-1.830445556,0.039075556
-8.74396692,-3.93993144,7.26948468,62.16,-133.279999,-3.71,1770370113,1.084346667,-2.324995538,-0.064718889
-6.96070512,-3.2433822,6.62798916,75.739998,-158.270004,-8.82,1770370113,1.321242187,-2.760932292,-0.15386
-5.08409136,-2.7407178,6.30484776,88.199997,-181.580002,-9.73,1770370113,1.538599948,-3.167562257,-0.169734444
-3.2673186,-2.05374312,6.50112624,94.290001,-196.419998,-7.28,1770370113,1.644836684,-3.426437743,-0.126995556
-1.46730132,-0.96703056,7.08038712,96.669998,-199.080002,-8.82,1770370113,1.68635441,-3.472840035,-0.15386
0.3231414,0.22260852,7.9468848,98.349998,-188.649994,-5.11,1770370113,1.715661076,-3.29089434,-0.089141111
1.91730564,1.44336492,8.9402454,92.190002,-165.270004,-10.57,1770370113,1.608203368,-2.883043403,-0.184387778
2.9681136,2.4415128,9.6224328,79.800003,-131.949997,-8.54,1770370113,1.392066719,-2.301794392,-0.148975556
3.70535472,2.86279344,10.03413888,64.120003,-96.040001,-16.73,1770370113,1.11853783,-1.675364462,-0.291845556
4.13142264,3.0279546,10.63733616,47.110001,-61.25,-14.91,1770370113,0.821807795,-1.068472222,-0.260096667
4.17929544,3.55694904,11.5612812,36.189999,-29.049999,-19.67,1770370113,0.631314427,-0.506761094,-0.343132222
3.8657286,4.29419016,12.49001352,22.75,-6.23,-20.23,1770370113,0.396861111,-0.108678889,-0.352901111
2.88194256,4.96201572,12.84666588,10.01,15.47,-21.139999,1770370113,0.174618889,0.269865556,-0.368775538
1.70187804,5.51973384,12.35357604,-3.36,33.040001,-26.530001,1770370113,-0.058613333,0.576364462,-0.462801129
0.6103782,5.9721318,11.53495116,-15.26,44.240002,-31.639999,1770370113,-0.266202222,0.771742257,-0.551942205
-0.33750324,6.1995276,10.50329232,-26.74,45.709999,-37.52,1770370113,-0.466464444,0.797385538,-0.654515556
-1.16330904,5.96255724,9.04556556,-38.57,41.16,-39.200001,1770370113,-0.672832222,0.718013333,-0.68382224
-1.8431028,5.75191692,7.69076532,-50.540001,36.049999,-35.139999,1770370113,-0.88164224,0.628872205,-0.61299776
-2.2859262,5.10802776,7.04448252,-59.849998,27.719999,-27.65,1770370113,-1.044049965,0.483559983,-0.482338889
-2.36012904,4.069188,7.39156032,-68.459999,17.92,-26.67,1770370114,-1.194246649,0.312604444,-0.465243333
-2.12555232,2.62342944,8.08810956,-70.209999,9.17,-22.82,1770370114,-1.224774427,0.159965556,-0.398082222
-1.66118616,1.06756344,8.63385948,-64.68,2.31,-22.120001,1770370114,-1.128306667,0.040296667,-0.385871129
-1.1250108,-0.24893856,9.11498112,-57.75,-3.36,-13.86,1770370114,-1.007416667,-0.058613333,-0.24178
-0.57926088,-1.12979808,9.80674308,-48.580002,-2.87,-9.87,1770370114,-0.847451146,-0.050065556,-0.172176667
0.0837774,-1.61810064,10.50568596,-42.139999,2.59,-3.01,1770370114,-0.735108871,0.045181111,-0.052507778
0.68697468,-1.88618832,11.00595672,-40.18,11.27,0.07,1770370114,-0.700917778,0.196598889,0.001221111
1.22554368,-1.98911484,11.19984156,-40.25,24.57,6.16,1770370114,-0.702138889,0.42861,0.107457778
1.52474868,-1.95560388,11.14478784,-38.990002,36.68,13.79,1770370114,-0.680158924,0.639862222,0.240558889
1.58219604,-1.76171904,10.78574184,-41.369999,50.119999,20.860001,1770370114,-0.721676649,0.874315538,0.363891129
1.37873664,-1.5319296,9.98626608,-39.900002,66.57,31.219999,1770370114,-0.696033368,1.161276667,0.544615538
1.03165884,-1.39070484,8.84689344,-38.080002,81.339996,40.669998,1770370114,-0.664284479,1.418931041,0.709465521
0.52420716,-1.36916208,7.719489,-35.349998,96.529999,50.889999,1770370114,-0.616661076,1.683912205,0.88774776
-0.19627848,-1.35958752,7.29581472,-31.360001,115.709999,61.389999,1770370114,-0.547057795,2.018496649,1.070914427
-1.24708644,-1.60134516,7.3484748,-30.030001,132.580002,73.779999,1770370114,-0.523856684,2.312784479,1.287051094
-2.42475732,-1.98432756,7.58544516,-24.01,145.389999,83.440002,1770370114,-0.418841111,2.53624776,1.455564479
-4.03567704,-2.3697036,8.3657718,-20.09,155.820007,90.650002,1770370114,-0.350458889,2.718193455,1.581338924
-5.89553532,-2.3098626,9.64876284,-17.780001,165.270004,93.730003,1770370114,-0.31016224,2.883043403,1.63506783
-7.86550104,-1.62288792,10.97244576,-18.690001,166.880005,88.690002,1770370114,-0.326036684,2.911128976,1.547147813
-9.8378604,-0.7061238,11.45596104,-19.809999,161.350006,80.919998,1770370114,-0.345574427,2.814661216,1.41160441
-11.84373072,0.11250108,11.00595672,-25.34,144.830002,66.919998,1770370114,-0.442042222,2.526478924,1.167382187
-13.61741796,0.9095832,10.4362704,-26.74,122.709999,46.970001,1770370114,-0.466464444,2.14060776,0.819365573
-14.7687588,1.6994844,9.75168936,-33.110001,95.970001,23.66,1770370114,-0.577585573,1.674143351,0.412735556
-15.14456028,2.06092404,9.08147016,-33.529999,64.68,1.12,1770370114,-0.584912205,1.128306667,0.019537778
-14.84296164,2.18299968,8.47827288,-29.540001,30.73,-17.01,1770370114,-0.515308906,0.536067778,-0.29673
-13.9070484,2.37449088,8.44715556,-19.879999,-1.61,-35.07,1770370114,-0.346795538,-0.028085556,-0.611776667
-12.40623612,2.86518708,8.58598668,-10.08,-31.15,-42,1770370114,-0.17584,-0.543394444,-0.732666667
-10.4841432,3.470778,8.43997464,-2.03,-57.610001,-51.029999,1770370114,-0.035412222,-1.004974462,-0.890189983
-8.44715556,4.04046432,8.09529048,1.68,-78.120003,-53.34,1770370114,0.029306667,-1.362760052,-0.930486667
-6.57772272,4.38514848,7.3245384,3.08,-93.169998,-52.150002,1770370114,0.053728889,-1.625298854,-0.909727813
-4.87823832,4.68195984,6.53703084,5.11,-105.980003,-52.360001,1770370114,0.089141111,-1.848762275,-0.913391129
-3.59285364,4.61493792,6.08942016,4.9,-109.620003,-44.869999,1770370114,0.085477778,-1.912260052,-0.782732205
-2.64975948,4.26786012,6.13729296,1.96,-104.089996,-37.73,1770370114,0.034191111,-1.815792152,-0.658178889
-2.17581876,3.92317596,5.98170636,-1.19,-91.559998,-28.07,1770370114,-0.020758889,-1.597213298,-0.489665556
-2.00347668,3.59046,5.28755076,-0.91,-78.190002,-23.52,1770370114,-0.015874444,-1.363981146,-0.410293333
-2.14948872,3.111732,4.66281072,-2.52,-63.77,-19.25,1770370114,-0.04396,-1.112432222,-0.335805556
-2.43911916,2.5013538,4.24631736,-3.99,-52.43,-16.52,1770370114,-0.069603333,-0.914612222,-0.288182222
-2.66412132,1.59655788,4.03807068,-0.7,-42.560001,-14.56,1770370114,-0.012211111,-0.742435573,-0.253991111
-3.01119912,0.25372584,3.91120776,9.87,-30.379999,-5.53,1770370114,0.172176667,-0.529962205,-0.096467778
-3.77716392,-1.5798024,4.05482616,27.440001,-17.15,4.2,1770370114,0.478675573,-0.299172222,0.073266667
-4.73701356,-3.50907624,4.64605524,43.330002,-1.68,13.37,1770370114,0.755867813,-0.029306667,0.233232222
-5.83808796,-5.3617536,5.8404816,57.959999,14.42,16.450001,1770370114,1.011079983,0.251548889,0.286961129
-7.16177088,-7.32932568,7.53278508,67.339996,24.290001,12.25,1770370114,1.174708819,0.423725573,0.213694444
-8.41603824,-9.19397124,9.05514012,72.660004,28.49,1.54,1770370114,1.267513403,0.496992222,0.026864444
-9.5266872,-10.63254888,10.25435376,79.379997,19.809999,-7,1770370114,1.384739948,0.345574427,-0.122111111
-10.51765416,-12.00889188,11.21180976,87.639999,2.52,-24.08,1770370114,1.528831094,0.04396,-0.420062222
-9.93599964,-11.55649392,11.79585792,100.449997,-27.860001,-33.950001,1770370114,1.752294392,-0.48600224,-0.592238906
-8.35619724,-9.4309416,12.03522192,115.639999,-68.669998,-40.669998,1770370114,2.017275538,-1.197909965,-0.709465521
-5.73037416,-5.9841,12.32245872,133.630005,-108.290001,-39.34,1770370114,2.331101198,-1.889058906,-0.686264444
-3.39418152,-2.71199412,13.22246736,144.970001,-136.919998,-32.619999,1770370114,2.528921129,-2.388493298,-0.56903776
-0.46197252,1.23511824,14.06981592,145.110001,-145.460007,-13.51,1770370114,2.531363351,-2.537469011,-0.235674444
1.2446928,4.07876256,14.85732348,133.839996,-138.389999,6.3,1770370114,2.334764375,-2.414136649,0.1099
2.4893856,6.28809228,14.9961546,107.870003,-114.029999,15.33,1770370114,1.881732275,-1.989189983,0.267423333
3.04471008,7.300602,14.37620184,75.599998,-73.989998,23.309999,1770370114,1.318799965,-1.29071441,0.406629983
2.84364432,7.80805368,13.43789496,47.529999,-23.24,26.950001,1770370114,0.829134427,-0.405408889,0.470127795
1.96757208,8.16709968,12.0041046,23.309999,27.93,26.459999,1770370114,0.406629983,0.487223333,0.461579983
0.56011176,8.39928276,10.20408732,6.09,66.43,24.15,1770370114,0.106236667,1.158834444,0.421283333
-0.86410404,8.70806232,8.4495492,-8.75,92.540001,18.27,1770370114,-0.152638889,1.614308906,0.31871
-2.08486044,8.69130684,6.73091568,-16.59,96.18,8.96,1770370114,-0.289403333,1.677806667,0.156302222
-3.00880548,8.1742806,5.29233804,-22.33,87.849998,2.66,1770370114,-0.389534444,1.53249441,0.046402222
-3.39178788,7.57826424,4.27504104,-24.709999,70.349998,-5.04,1770370114,-0.431052205,1.227216632,-0.08792
-3.22662672,6.98224788,3.58327908,-23.52,38.43,-14.49,1770370114,-0.410293333,0.67039,-0.25277
-2.76226056,6.65671284,3.08540196,-24.43,6.58,-22.120001,1770370114,-0.426167778,0.114784444,-0.385871129
-2.11119048,6.65671284,2.72396232,-26.74,-22.33,-27.23,1770370114,-0.466464444,-0.389534444,-0.475012222
-1.33086384,6.63756372,2.23326612,-32.130001,-46.759998,-23.870001,1770370114,-0.560490017,-0.815702187,-0.416398906
-0.47394072,6.11335656,1.50559956,-38.220001,-61.669998,-21.700001,1770370114,-0.666726684,-1.075798854,-0.378544462
0.27766224,5.17744332,0.99814788,-41.509998,-70,-15.75,1770370114,-0.724118854,-1.221111111,-0.27475
0.8497422,4.29897744,0.6941556,-50.400002,-66.639999,-6.16,1770370114,-0.879200035,-1.16249776,-0.107457778
1.12740444,3.52822536,0.84734856,-63.560001,-46.060001,1.47,1770370114,-1.108768906,-0.803491129,0.025643333
1.68990984,2.13273324,1.86943284,-73.010002,-19.18,8.05,1770370114,-1.273618924,-0.334584444,0.140427778
2.06092404,0.14840568,4.01892156,-76.790001,20.02,11.2,1770370114,-1.339558906,0.349237778,0.195377778
2.1782124,-1.99629576,7.20964368,-73.5,69.019997,16.450001,1770370114,-1.282166667,1.204015503,0.286961129
1.88140104,-3.63115188,10.33813116,-69.790001,122.849998,18.41,1770370114,-1.217447795,2.143049965,0.321152222
0.658251,-5.09366592,13.464225,-66.43,169.399994,10.01,1770370114,-1.158834444,2.955088784,0.174618889
-1.13937264,-4.87823832,16.64537256,-69.580002,202.580002,13.72,1770370114,-1.213784479,3.53389559,0.239337778
-4.25349828,-4.13142264,19.55843244,-80.849998,228.059998,15.61,1770370114,-1.410383298,3.978379965,0.272307778
-7.66204164,-4.547916,20.2980672,-90.089996,243.320007,16.73,1770370114,-1.57156993,4.244582344,0.291845556
-11.08015956,-5.88596076,19.0174698,-83.650002,245.770004,16.59,1770370114,-1.459227813,4.287321181,0.289403333
-14.421681,-6.92001324,17.0068122,-64.120003,231.839996,15.96,1770370114,-1.11853783,4.04431993,0.278413333
-17.26532532,-6.6543192,15.23073132,-41.790001,200.410004,11.76,1770370114,-0.729003351,3.496041181,0.205146667
-18.71347752,-4.9308984,13.97167668,-26.6,150.5,2.66,1770370114,-0.464022222,2.625388889,0.046402222
-19.16348184,-2.6569404,13.0692744,-17.57,90.790001,-7.21,1770370114,-0.306498889,1.583781129,-0.125774444
-18.52437996,-0.2154276,12.44453436,-18.969999,30.940001,-25.76,1770370114,-0.330921094,0.539731129,-0.449368889
-16.99245036,1.6396434,11.4415992,-29.120001,-22.049999,-37.869999,1770370114,-0.50798224,-0.384649983,-0.660621094
-14.96264364,2.73832416,10.07483076,-36.540001,-64.190002,-50.889999,1770370114,-0.637420017,-1.119758924,-0.88774776
-12.64320648,3.33434052,8.69848776,-37.450001,-95.269997,-62.23,1770370114,-0.653294462,-1.66193217,-1.085567778
-10.3883976,3.53301264,7.17373908,-32.41,-118.860001,-69.510002,1770370114,-0.565374444,-2.073446684,-1.212563368
-8.27960076,3.4947144,5.59393668,-23.24,-132.509995,-75.389999,1770370114,-0.405408889,-2.311563246,-1.315136649
-6.24500676,3.46599072,4.55030964,-10.92,-141.960007,-74.970001,1770370114,-0.190493333,-2.476413455,-1.307810017
-4.6316934,3.41811792,4.069188,0,-146.929993,-76.510002,1770370114,0,-2.5631121,-1.334674479
-3.20029668,3.26971224,3.77237664,10.99,-143.639999,-72.660004,1770370114,0.191714444,-2.505719983,-1.267513403
-1.98911484,3.08540196,3.60482184,21.98,-139.300003,-66.080002,1770370114,0.383428889,-2.430011163,-1.152728924
-0.99096696,2.8843362,3.35348964,29.68,-132.649994,-63.91,1770370114,0.517751111,-2.314005451,-1.114874444
-0.1675548,2.68805772,2.86518708,35.209999,-131.949997,-61.110001,1770370114,0.614218871,-2.301794392,-1.066030017
0.4428234,2.64018492,2.14470144,35.560001,-132.720001,-59.57,1770370114,0.620324462,-2.315226684,-1.039165556
1.077138,2.52289656,1.4242158,35.07,-136.850006,-58.310001,1770370114,0.611776667,-2.387272327,-1.017185573
1.52474868,2.0585304,1.04362704,32.34,-137.270004,-52.709999,1770370114,0.564153333,-2.394598959,-0.919496649
1.87182648,1.11782988,1.17527724,26.389999,-129.149994,-45.849998,1770370114,0.460358871,-2.252949895,-0.799827743
2.06331768,0.34229052,1.67794164,23.1,-108.5,-40.459999,1770370114,0.402966667,-1.892722222,-0.705802205
2.1423078,-0.17473572,2.55401388,19.18,-76.790001,-27.860001,1770370114,0.334584444,-1.339558906,-0.48600224
2.0226258,-0.70133652,3.91599504,17.43,-33.810001,-14.42,1770370114,0.304056667,-0.589796684,-0.251548889
1.51756776,-1.47448224,5.46468012,14.21,15.4,-1.19,1770370114,0.247885556,0.268644444,-0.020758889
0.46197252,-2.55162024,7.0732062,11.34,64.330002,5.25,1770370114,0.19782,1.122201146,0.091583333
-1.28777832,-4.05961344,8.75593512,10.57,105.419998,13.02,1770370114,0.184387778,1.838993298,0.227126667
-3.99977244,-6.50830716,10.4602068,16.52,142.589996,14.7,1770370114,0.288182222,2.487403264,0.256433333
-7.33171932,-9.45727164,11.75755968,29.889999,172.479996,14.35,1770370114,0.521414427,3.008817708,0.250327778
-10.64930436,-11.58043032,12.85863408,55.509998,184.100006,18.27,1770370114,0.968341076,3.211522327,0.31871
-14.182317,-12.84666588,14.22061524,79.099998,164.009995,14.14,1770370114,1.379855521,2.861063246,0.246664444
-15.7142466,-11.67617592,15.6065328,93.519997,108.5,1.68,1770370114,1.631404392,1.892722222,0.029306667
-15.16849668,-8.856468,16.43712588,100.730003,22.469999,-5.88,1770370114,1.757178941,0.391976649,-0.102573333
-13.05012528,-5.20137972,16.63819164,105.769997,-80.989998,-12.11,1770370114,1.845098837,-1.412825521,-0.211252222
-10.6277616,-2.14470144,16.79377824,104.300003,-160.369995,-11.34,1770370114,1.819455608,-2.797565468,-0.19782
-7.8750756,0.2872368,17.42091192,100.870003,-204.679993,-13.93,1770370114,1.759621163,-3.570528767,-0.243001111
-4.59818244,2.99205,17.4975084,91.980003,-220.429993,-9.45,1770370114,1.604540052,-3.845278767,-0.16485
-1.9627848,5.5412766,17.0187804,76.370003,-211.119995,-3.15,1770370114,1.332232275,-3.682871024,-0.05495
0.00239364,7.29342108,15.56823456,55.860001,-184.869995,-3.64,1770370114,0.974446684,-3.224954357,-0.063497778
1.555866,7.95645936,13.30624476,32.970001,-144.270004,-3.71,1770370114,0.575143351,-2.51671007,-0.064718889
2.4415128,7.7553936,10.84797648,17.99,-99.330002,-1.96,1770370114,0.313825556,-1.732756702,-0.034191111
2.70002592,7.36523028,8.75832876,7.56,-53.41,-0.91,1770370114,0.13188,-0.931707778,-0.015874444
2.35055448,7.11389808,6.92240688,3.43,-15.26,0.98,1770370114,0.059834444,-0.266202222,0.017095556
1.83592188,6.89128956,5.146326,0.14,13.58,-1.61,1770370114,0.002442222,0.236895556,-0.028085556
1.36916208,6.43171068,3.5784918,0.98,23.59,-0.14,1770370114,0.017095556,0.411514444,-0.002442222
0.94788144,5.744736,2.00108304,0.56,24.290001,-5.18,1770370114,0.009768889,0.423725573,-0.090362222
0.48830256,4.93329204,0.6821874,3.78,14.84,-5.25,1770370114,0.06594,0.258875556,-0.091583333
0.31835412,4.43780856,-0.11728836,8.54,3.08,-13.09,1770370114,0.148975556,0.053728889,-0.228347778
0.38537604,4.39951032,-0.6702192,12.32,-9.31,-19.18,1770370115,0.214915556,-0.162407778,-0.334584444
0.59122908,4.5000432,-1.017297,16.309999,-18.41,-22.26,1770370115,0.284518871,-0.321152222,-0.388313333
0.9215514,4.36360572,-1.19442636,17.08,-20.58,-23.799999,1770370115,0.297951111,-0.359006667,-0.41517776
1.30932108,4.10030532,-0.91437048,17.08,-18.620001,-27.65,1770370115,0.297951111,-0.324815573,-0.482338889
1.63485612,3.92796324,0.1555866,8.12,-4.41,-23.309999,1770370115,0.141648889,-0.07693,-0.406629983
1.78565544,3.9136014,2.273958,-10.57,22.610001,-15.75,1770370115,-0.184387778,0.394418906,-0.27475
1.76650632,3.530619,5.4694674,-36.119999,62.439999,-10.22,1770370115,-0.630093316,1.089231094,-0.178282222
1.78565544,2.214117,9.02881008,-63.419998,111.300003,-6.51,1770370115,-1.106326632,1.941566719,-0.113563333
1.40267304,-0.3111732,11.51580204,-70.209999,160.229996,-6.65,1770370115,-1.224774427,2.795123264,-0.116005556
0.49787712,-2.9082726,13.50731052,-65.519997,202.089996,-0.77,1770370115,-1.142959948,3.525347708,-0.013432222
-1.02208428,-4.11466716,15.90095052,-61.669998,226.660004,1.54,1770370115,-1.075798854,3.953957848,0.026864444
-3.66945012,-3.94711236,18.60097644,-66.43,231.770004,8.75,1770370115,-1.158834444,4.043098959,0.152638889
-7.10671716,-4.74419448,21.0999366,-80.360001,222.320007,11.76,1770370115,-1.401835573,3.878249011,0.205146667
-9.97669152,-6.67586196,21.67680384,-78.540001,206.570007,7.42,1770370115,-1.370086684,3.603499011,0.129437778
-12.04719012,-8.5931676,20.74328424,-55.93,188.440002,10.64,1770370115,-0.975667778,3.287231146,0.185608889
-13.54082148,-8.50699656,18.7661376,-31.219999,156.380005,5.74,1770370115,-0.544615538,2.727962309,0.100131111
-14.76636516,-6.30006048,17.26771896,-17.92,111.510002,-0.49,1770370115,-0.312604444,1.945230035,-0.008547778
-15.2714232,-3.5545554,16.07568624,-23.870001,70.910004,-15.61,1770370115,-0.416398906,1.236985625,-0.272307778
-14.84535528,-1.24948008,14.840568,-35.630001,36.82,-30.940001,1770370115,-0.621545573,0.642304444,-0.539731129
-13.58151336,0.32553504,12.85624044,-46.970001,8.54,-46.27,1770370115,-0.819365573,0.148975556,-0.807154444
-12.11660568,1.21118184,10.4003658,-51.029999,-15.19,-59.43,1770370115,-0.890189983,-0.264981111,-1.036723333
-10.72590084,1.58458968,8.4016764,-45.57,-34.93,-69.650002,1770370115,-0.794943333,-0.609334444,-1.21500559
-9.37349424,1.76171904,6.96788604,-38.990002,-49,-72.870003,1770370115,-0.680158924,-0.854777778,-1.271176719
-8.13598236,1.88858196,6.02957916,-27.02,-62.580002,-80.360001,1770370115,-0.471348889,-1.091673368,-1.401835573
-6.97985424,2.10879684,5.32106172,-14.35,-73.779999,-75.809998,1770370115,-0.250327778,-1.287051094,-1.322463298
-5.924259,2.34337356,4.63648068,-1.82,-85.82,-73.919998,1770370115,-0.031748889,-1.497082222,-1.289493298
-4.92371748,2.53007748,3.82264308,9.59,-96.949997,-64.400002,1770370115,0.167292222,-1.691238837,-1.123422257
-3.98062332,2.53247112,3.01359276,13.37,-110.599998,-59.080002,1770370115,0.233232222,-1.929355521,-1.030617813
-3.14045568,2.38406544,2.07289224,19.25,-128.800003,-55.09,1770370115,0.335805556,-2.246844497,-0.961014444
-2.37688452,2.19496788,1.12261716,24.01,-145.460007,-52.009998,1770370115,0.418841111,-2.537469011,-0.907285521
-1.7593254,1.615707,0.76835844,28.629999,-150.919998,-49.139999,1770370115,0.499434427,-2.632715521,-0.857219983
-1.26144828,0.96703056,0.88325316,33.669998,-147.699997,-41.790001,1770370115,0.58735441,-2.576544392,-0.729003351
-0.91197684,0.8138376,1.29735288,38.5,-135.169998,-37.52,1770370115,0.671611111,-2.357965521,-0.654515556
-0.658251,0.79708212,2.23087248,42.139999,-112.349998,-30.799999,1770370115,0.735108871,-1.959883298,-0.537288871
-0.52899444,0.59841,3.63354552,44.66,-81.269997,-20.790001,1770370115,0.779068889,-1.417709948,-0.362670017
-0.75160296,0.05266008,5.3737218,41.650002,-43.470001,-8.12,1770370115,0.726561146,-0.758310017,-0.141648889
-1.54868508,-0.85452948,6.9056514,43.75,-1.54,3.01,1770370115,0.763194444,-0.026864444,0.052507778
-2.87476164,-2.02023216,8.1862488,48.299999,38.009998,9.38,1770370115,0.842566649,0.663063298,0.163628889
-4.68435348,-3.34152144,10.0173834,57.959999,71.470001,10.64,1770370115,1.011079983,1.246754462,0.185608889
-6.74049024,-4.22956188,11.908359,68.18,88.410004,10.5,1770370115,1.189362222,1.542263403,0.183166667
-9.45009072,-4.87345104,13.07884896,77,88.970001,7.84,1770370115,1.343222222,1.55203224,0.136764444
-12.45171528,-5.60351124,13.34214936,83.230003,71.68,2.1,1770370115,1.451901163,1.250417778,0.036633333
-14.31875448,-6.44367888,13.61023704,79.730003,34.02,-9.45,1770370115,1.390845608,0.59346,-0.16485
-14.70413052,-7.54235964,14.49109656,69.300003,-27.370001,-23.309999,1770370115,1.208900052,-0.477454462,-0.406629983
-12.41581068,-7.8750756,16.09962264,62.23,-106.050003,-24.85,1770370115,1.085567778,-1.849983386,-0.433494444
-9.62961372,-7.1689518,18.09831204,56.560001,-172.899994,-20.09,1770370115,0.986657795,-3.01614434,-0.350458889
-6.38623152,-5.52212748,19.208961,55.299999,-223.300003,-20.58,1770370115,0.96467776,-3.895344497,-0.359006667
-3.12609384,-2.75747328,19.57758156,44.099998,-250.039993,-15.33,1770370115,0.769299965,-4.361808767,-0.267423333
-0.4428234,-0.059841,18.7541694,24.08,-254.029999,-16.52,1770370115,0.420062222,-4.431412205,-0.288182222
2.333799,2.69523864,16.4323386,3.43,-243.600006,-5.67,1770370115,0.059834444,-4.249466771,-0.09891
3.59046,4.25828556,13.59826884,-13.23,-218.330002,1.33,1770370115,-0.23079,-3.80864559,0.023201111
4.44259584,5.19659244,10.39797216,-23.799999,-186.550003,8.4,1770370115,-0.41517776,-3.254261163,0.146533333
4.906962,5.8404816,7.53278508,-25.48,-149.940002,16.030001,1770370115,-0.444484444,-2.615620035,0.279634462
4.92132384,6.163623,5.27079528,-20.09,-112.07,23.379999,1770370115,-0.350458889,-1.954998889,0.407851094
4.56467148,6.04633464,3.32476596,-12.11,-76.580002,25.41,1770370115,-0.211252222,-1.33589559,0.443263333
4.00455972,5.59872396,1.76171904,-3.22,-48.93,23.309999,1770370115,-0.056171111,-0.853556667,0.406629983
3.34391508,5.11281504,0.56489904,7.63,-28.91,18.059999,1770370115,0.133101111,-0.504318889,0.315046649
2.66651496,4.61254428,-0.28484316,13.37,-12.25,7.98,1770370115,0.233232222,-0.213694444,0.139206667
2.16145692,4.29897744,-0.97899876,15.19,-1.47,-0.7,1770370115,0.264981111,-0.025643333,-0.012211111
1.73299536,3.9255696,-1.66836708,17.219999,5.39,-8.4,1770370115,0.300393316,0.094025556,-0.146533333
1.37155572,3.33194688,-2.29550076,15.19,13.58,-16.1,1770370115,0.264981111,0.236895556,-0.280855556
1.12261716,2.61864216,-2.41518276,13.02,23.59,-16.309999,1770370115,0.227126667,0.411514444,-0.284518871
1.17527724,2.05613676,-1.8431028,7.07,39.34,-12.04,1770370115,0.123332222,0.686264444,-0.210031111
1.47687588,1.76650632,0.0957456,0.77,59.43,-4.83,1770370115,0.013432222,1.036723333,-0.084256667
1.735389,1.41703488,3.52583172,-4.69,87.779999,8.54,1770370115,-0.081814444,1.531273316,0.148975556
1.76171904,1.01490336,8.0067258,-10.22,131.389999,13.09,1770370115,-0.178282222,2.292025538,0.228347778
1.79283636,0.65107008,12.12618024,-17.639999,168.350006,17.43,1770370115,-0.307719983,2.936772327,0.304056667
1.53671688,-0.50027076,14.5772676,-14.91,199.080002,18.059999,1770370115,-0.260096667,3.472840035,0.315046649
0.29681136,-1.76411268,16.49936052,-8.54,212.520004,12.67,1770370115,-0.148975556,3.707293403,0.221021111
-1.12261716,-2.22847884,18.99113976,-8.82,205.869995,4.34,1770370115,-0.15386,3.591287691,0.075708889
-2.8963044,-2.752686,21.71270844,-0.35,180.880005,-2.03,1770370115,-0.006105556,3.155351198,-0.035412222
-4.98595212,-4.26307284,24.39837252,10.57,151.059998,-1.12,1770370115,0.184387778,2.635157743,-0.019537778
-6.00324912,-5.59633032,23.42655468,17.360001,122.849998,3.29,1770370115,0.302835573,2.143049965,0.057392222
-6.5705418,-5.00988852,19.93662756,19.879999,88.269997,3.57,1770370115,0.346795538,1.539821059,0.062276667
-7.40352852,-3.8776968,18.18208944,12.11,70,-3.99,1770370115,0.211252222,1.221111111,-0.069603333
-7.87986288,-2.25720252,17.63155224,-4.69,73.010002,-16.870001,1770370115,-0.081814444,1.273618924,-0.294287795
-8.04502404,-1.03405248,16.97569488,-26.530001,85.75,-28,1770370115,-0.462801129,1.495861111,-0.488444444
-8.00911944,-0.12446928,15.32647692,-49.349998,97.160004,-34.650002,1770370115,-0.860883298,1.694902292,-0.604450035
-8.1024714,0.0478728,12.7700694,-62.02,99.959999,-42.700001,1770370115,-1.081904444,1.743746649,-0.744877795
-8.36816544,0.0957456,10.26392832,-68.18,91.839996,-46.41,1770370115,-1.189362222,1.602097708,-0.809596667
-8.5452948,0.33750324,8.15513148,-66.57,76.790001,-55.720001,1770370115,-1.161276667,1.339558906,-0.972004462
-8.52614568,0.80426304,6.48197712,-55.860001,54.32,-61.880001,1770370115,-0.974446684,0.947582222,-1.07946224
-8.28678168,1.19203272,5.25643344,-46.970001,32.549999,-67.059998,1770370115,-0.819365573,0.567816649,-1.16982441
-7.79608548,1.41942852,4.23195552,-34.790001,11.83,-69.300003,1770370115,-0.60689224,0.206367778,-1.208900052
-7.13783448,1.50320592,3.25295676,-24.85,-12.04,-69.089996,1770370115,-0.433494444,-0.210031111,-1.205236597
-6.33357144,1.61331336,2.20454244,-14.14,-36.259998,-70.769997,1770370115,-0.246664444,-0.632535521,-1.234543281
-5.34021084,1.85267736,1.28299104,-2.59,-61.529999,-67.199997,1770370115,-0.045181111,-1.073356649,-1.172266614
-4.56467148,1.88858196,0.6821874,4.9,-85.330002,-64.610001,1770370115,0.085477778,-1.488534479,-1.127085573
-3.67184376,1.91251836,0.3111732,15.19,-106.75,-62.509998,1770370115,0.264981111,-1.862194444,-1.090452187
-2.6210358,2.06571132,0.1675548,20.09,-126.839996,-59.779999,1770370115,0.350458889,-2.212653264,-1.042828871
-1.59416424,2.25241524,0.2752686,24.639999,-141.259995,-55.509998,1770370115,0.429831094,-2.464202135,-0.968341076
-0.73484748,1.94124204,0.66543192,25.9,-146.369995,-48.09,1770370115,0.451811111,-2.553343246,-0.838903333
-0.12446928,1.19921364,1.56065328,27.790001,-134.399994,-36.400002,1770370115,0.484781129,-2.344533229,-0.634977813
0.37819512,0.42846156,2.7287496,36.610001,-108.919998,-25.27,1770370115,0.638641129,-1.900048854,-0.440821111
0.65107008,-0.34229052,4.26546648,47.740002,-70.769997,-11.62,1770370115,0.832797813,-1.234543281,-0.202704444
0.3710142,-1.14176628,6.37665696,59.220001,-18.9,3.64,1770370115,1.033060017,-0.3297,0.063497778
-0.2273958,-1.78565544,9.1078002,77.980003,40.529999,13.86,1770370115,1.36031783,0.707023316,0.24178
-1.4122476,-2.25480888,12.26501136,94.849998,93.449997,21.91,1770370115,1.654605521,1.630183281,0.382207778
-3.53779992,-2.08964772,15.43419072,105.980003,129.710007,24.01,1770370115,1.848762275,2.262719011,0.418841111
-6.941556,-2.07767952,17.77995792,107.730003,143.850006,24.709999,1770370115,1.879290052,2.509383438,0.431052205
-10.78095456,-2.92981536,18.131823,96.879997,139.440002,12.88,1770370115,1.690017725,2.432453368,0.224684444
-13.1410836,-4.31573292,17.48314656,84.419998,112.279999,8.05,1770370115,1.472659965,1.958662205,0.140427778
-14.53657572,-5.64180948,17.4017628,72.239998,59.639999,5.04,1770370115,1.260186632,1.040386649,0.08792
-15.20918856,-6.65192556,18.07437564,56.84,-7.56,-4.83,1770370115,0.991542222,-0.13188,-0.084256667
-14.09375232,-6.7261284,18.96241608,36.75,-81.970001,-15.82,1770370115,0.641083333,-1.429921129,-0.275971111
-11.2860126,-5.9362272,19.27598292,21.77,-153.789993,-20.93,1770370115,0.379765556,-2.682780989,-0.365112222
-8.15273784,-4.39951032,18.8259786,9.87,-200.199997,-23.52,1770370115,0.172176667,-3.492377725,-0.410293333
-5.1582942,-2.5013538,17.86612896,-7.35,-226.520004,-27.440001,1770370115,-0.128216667,-3.951515625,-0.478675573
-2.36730996,-0.70373016,16.53765876,-26.32,-235.619995,-31.709999,1770370115,-0.459137778,-4.110259913,-0.553163316
-0.02154276,0.73963476,14.46716016,-45.57,-231,-32.549999,1770370115,-0.794943333,-4.029666667,-0.567816649
1.8909756,1.73299536,12.0998502,-53.48,-219.100006,-25.200001,1770370115,-0.932928889,-3.822077882,-0.439600017
3.09737016,2.38885272,9.80674308,-51.240002,-198.660004,-14.84,1770370115,-0.893853368,-3.465513403,-0.258875556
3.86812224,3.0040182,7.59262608,-47.740002,-170.660004,-1.19,1770370115,-0.832797813,-2.977068959,-0.020758889
4.17929544,3.43008612,5.89792896,-42,-134.399994,11.55,1770370115,-0.732666667,-2.344533229,0.201483333
4.19365728,3.6622692,4.37557392,-35.139999,-92.75,26.459999,1770370115,-0.61299776,-1.617972222,0.461579983
3.94711236,3.76040844,2.9681136,-29.120001,-52.009998,33.810001,1770370115,-0.50798224,-0.907285521,0.589796684
3.39418152,3.8178558,1.75693176,-21.98,-20.58,43.75,1770370115,-0.383428889,-0.359006667,0.763194444
2.58034392,3.73168476,0.80426304,-16.66,7.7,42.279999,1770370115,-0.290624444,0.134322222,0.737551094
1.7832618,3.6862056,0.11250108,-8.68,28.209999,39.200001,1770370115,-0.151417778,0.49210776,0.68382224
1.15852176,3.76519572,-0.42367428,-5.25,40.880001,32.549999,1770370115,-0.091583333,0.713128906,0.567816649
0.67740012,3.80349396,-1.08192528,-1.54,49,23.030001,1770370115,-0.026864444,0.854777778,0.401745573
